
time,ax,ay,az,wx,wy,wz
0.002,-0.36,-0.22,-1.12,-0.29,0.06,-0.01
0.002,-0.28,-0.22,-1.09,-0.29,0.06,-0.01
0.003,-0.28,-0.22,-1.09,-0.32,0.05,0.00
0.003,-0.28,-0.22,-1.09,-0.35,0.05,0.01
0.003,-0.26,-0.27,-0.98,-0.35,0.05,0.01
0.003,-0.26,-0.27,-0.98,-0.37,0.04,0.01
0.004,-0.26,-0.27,-0.98,-0.40,0.03,0.02
0.004,-0.18,-0.22,-0.86,-0.40,0.03,0.02
0.004,-0.18,-0.22,-0.86,-0.41,0.01,0.02
0.004,-0.18,-0.22,-0.86,-0.43,-0.00,0.02
0.005,-0.13,-0.21,-0.68,-0.43,-0.00,0.02
0.005,-0.13,-0.21,-0.68,-0.44,-0.02,0.02
0.01,-0.12,-0.17,-0.48,-0.44,-0.02,0.02
0.01,-0.12,-0.17,-0.48,-0.44,-0.05,0.02
0.012,-0.15,-0.14,-0.18,-0.44,-0.05,0.02
0.012,-0.15,-0.14,-0.18,-0.44,-0.08,0.03
0.013,-0.15,-0.14,-0.18,-0.43,-0.12,0.03
0.016,-0.13,-0.04,0.20,-0.43,-0.12,0.03
0.017,-0.13,-0.04,0.20,-0.41,-0.16,0.03
0.026,-0.08,-0.04,0.50,-0.41,-0.16,0.03
0.027,-0.08,-0.04,0.50,-0.38,-0.19,0.03
0.027,-0.08,-0.04,0.50,-0.36,-0.21,0.04
0.027,-0.08,-0.04,0.50,-0.32,-0.22,0.04
0.027,-0.08,-0.01,0.70,-0.32,-0.22,0.04
0.028,-0.08,-0.01,0.70,-0.29,-0.22,0.05
0.028,-0.07,-0.06,0.81,-0.29,-0.22,0.05
0.028,-0.07,-0.06,0.81,-0.26,-0.22,0.05
0.032,-0.07,-0.03,0.90,-0.26,-0.22,0.05
0.032,-0.07,-0.03,0.90,-0.22,-0.22,0.06
0.033,-0.07,-0.03,0.90,-0.19,-0.21,0.06
0.036,-0.07,-0.11,0.86,-0.19,-0.21,0.06
0.036,-0.07,-0.11,0.86,-0.15,-0.20,0.06
0.04,-0.12,-0.16,0.77,-0.15,-0.20,0.06
0.041,-0.12,-0.16,0.77,-0.13,-0.18,0.07
0.041,-0.12,-0.16,0.77,-0.11,-0.17,0.07
0.043,-0.13,-0.18,0.58,-0.11,-0.17,0.07
0.044,-0.13,-0.18,0.58,-0.09,-0.15,0.07
0.047,-0.13,-0.18,0.58,-0.09,-0.13,0.07
0.047,-0.14,-0.22,0.34,-0.09,-0.13,0.07
0.05,-0.14,-0.22,0.34,-0.08,-0.11,0.07
0.052,-0.11,-0.27,0.06,-0.08,-0.11,0.07
0.053,-0.11,-0.27,0.06,-0.09,-0.09,0.07
0.054,-0.11,-0.27,0.06,-0.09,-0.07,0.06
0.055,-0.11,-0.27,0.06,-0.11,-0.05,0.06
0.055,-0.09,-0.28,-0.19,-0.11,-0.05,0.06
0.059,-0.09,-0.28,-0.19,-0.13,-0.03,0.05
0.059,-0.08,-0.27,-0.43,-0.13,-0.03,0.05
0.062,-0.08,-0.27,-0.43,-0.15,-0.01,0.04
0.062,-0.08,-0.27,-0.43,-0.17,0.01,0.04
0.063,-0.07,-0.25,-0.60,-0.17,0.01,0.04
0.066,-0.07,-0.25,-0.60,-0.20,0.02,0.04
0.066,-0.09,-0.20,-0.76,-0.20,0.02,0.04
0.071,-0.09,-0.20,-0.76,-0.23,0.04,0.03
0.071,-0.09,-0.20,-0.76,-0.26,0.05,0.03
0.071,-0.12,-0.16,-0.85,-0.26,0.05,0.03
0.074,-0.12,-0.16,-0.85,-0.29,0.05,0.03
0.074,-0.15,-0.13,-0.88,-0.29,0.05,0.03
0.074,-0.15,-0.13,-0.88,-0.32,0.06,0.03
0.079,-0.15,-0.13,-0.88,-0.34,0.06,0.03
0.079,-0.22,-0.10,-0.88,-0.34,0.06,0.03
0.081,-0.22,-0.10,-0.88,-0.37,0.05,0.03
0.082,-0.22,-0.10,-0.88,-0.39,0.05,0.03
0.082,-0.27,-0.09,-0.84,-0.39,0.05,0.03
0.094,-0.30,-0.06,-0.76,-0.39,0.05,0.03
0.094,-0.30,-0.06,-0.76,-0.42,0.05,0.04
0.095,-0.30,-0.08,-0.67,-0.42,0.05,0.04
0.095,-0.30,-0.08,-0.67,-0.43,0.04,0.04
0.095,-0.30,-0.08,-0.67,-0.45,0.03,0.05
0.095,-0.30,-0.08,-0.67,-0.46,0.03,0.05
0.095,-0.28,-0.10,-0.55,-0.46,0.03,0.05
0.096,-0.28,-0.10,-0.55,-0.47,0.02,0.06
0.099,-0.28,-0.10,-0.55,-0.48,0.01,0.07
0.099,-0.27,-0.15,-0.43,-0.48,0.01,0.07
0.102,-0.22,-0.17,-0.33,-0.48,0.01,0.07
0.105,-0.22,-0.17,-0.33,-0.49,0.00,0.08
0.105,-0.22,-0.17,-0.33,-0.49,-0.00,0.08
0.107,-0.22,-0.17,-0.33,-0.49,-0.01,0.09
0.107,-0.16,-0.23,-0.25,-0.49,-0.01,0.09
0.11,-0.16,-0.23,-0.25,-0.50,-0.01,0.09
0.111,-0.12,-0.25,-0.22,-0.50,-0.01,0.09
0.111,-0.12,-0.25,-0.22,-0.50,-0.02,0.10
0.115,-0.12,-0.25,-0.22,-0.50,-0.02,0.10
0.115,-0.14,-0.26,-0.21,-0.50,-0.02,0.10
0.115,-0.14,-0.26,-0.21,-0.51,-0.02,0.10
0.119,-0.14,-0.26,-0.21,-0.51,-0.03,0.10
0.12,-0.16,-0.26,-0.19,-0.51,-0.03,0.10
0.123,-0.20,-0.22,-0.18,-0.51,-0.03,0.10
0.123,-0.20,-0.22,-0.18,-0.51,-0.04,0.11
0.123,-0.20,-0.22,-0.18,-0.52,-0.04,0.11
0.126,-0.20,-0.22,-0.18,-0.52,-0.05,0.11
0.126,-0.24,-0.17,-0.13,-0.52,-0.05,0.11
0.13,-0.24,-0.17,-0.13,-0.52,-0.06,0.12
0.13,-0.23,-0.12,-0.09,-0.52,-0.06,0.12
0.13,-0.23,-0.12,-0.09,-0.52,-0.07,0.13
0.133,-0.23,-0.12,-0.09,-0.52,-0.08,0.14
0.135,-0.23,-0.12,-0.09,-0.52,-0.08,0.14
0.136,-0.23,-0.10,-0.06,-0.52,-0.08,0.14
0.139,-0.23,-0.10,-0.06,-0.52,-0.08,0.15
0.139,-0.19,-0.11,-0.03,-0.52,-0.08,0.15
0.142,-0.19,-0.11,-0.03,-0.52,-0.09,0.16
0.155,-0.14,-0.14,-0.04,-0.52,-0.09,0.16
0.156,-0.14,-0.14,-0.04,-0.52,-0.09,0.17
0.156,-0.14,-0.14,-0.04,-0.52,-0.09,0.17
0.156,-0.14,-0.16,-0.04,-0.52,-0.09,0.17
0.156,-0.14,-0.16,-0.04,-0.52,-0.09,0.18
0.157,-0.14,-0.16,-0.04,-0.52,-0.10,0.18
0.157,-0.11,-0.17,-0.03,-0.52,-0.10,0.18
0.157,-0.11,-0.17,-0.03,-0.52,-0.10,0.19
0.157,-0.10,-0.20,-0.03,-0.52,-0.10,0.19
0.157,-0.10,-0.20,-0.03,-0.53,-0.11,0.19
0.159,-0.11,-0.23,-0.05,-0.53,-0.11,0.19
0.159,-0.11,-0.23,-0.05,-0.53,-0.11,0.19
0.163,-0.11,-0.23,-0.05,-0.54,-0.11,0.20
0.163,-0.17,-0.25,-0.06,-0.54,-0.11,0.20
0.163,-0.17,-0.25,-0.06,-0.54,-0.11,0.20
0.164,-0.17,-0.25,-0.06,-0.54,-0.11,0.21
0.166,-0.20,-0.23,-0.07,-0.54,-0.11,0.21
0.169,-0.20,-0.23,-0.07,-0.54,-0.11,0.21
0.17,-0.20,-0.23,-0.07,-0.55,-0.11,0.22
0.171,-0.31,-0.23,-0.02,-0.55,-0.11,0.22
0.171,-0.31,-0.23,-0.02,-0.55,-0.11,0.23
0.176,-0.36,-0.22,0.04,-0.55,-0.11,0.23
0.176,-0.36,-0.22,0.04,-0.55,-0.11,0.24
0.18,-0.46,-0.19,0.10,-0.55,-0.11,0.24
0.181,-0.46,-0.19,0.10,-0.54,-0.11,0.25
0.181,-0.46,-0.19,0.10,-0.54,-0.11,0.27
0.185,-0.46,-0.19,0.10,-0.54,-0.11,0.28
0.185,-0.56,-0.14,0.19,-0.54,-0.11,0.28
0.185,-0.56,-0.14,0.19,-0.53,-0.12,0.30
0.188,-0.64,-0.09,0.28,-0.53,-0.12,0.30
0.188,-0.64,-0.09,0.28,-0.52,-0.12,0.32
0.192,-0.64,-0.04,0.35,-0.52,-0.12,0.32
0.192,-0.64,-0.04,0.35,-0.51,-0.13,0.34
0.193,-0.64,-0.04,0.35,-0.49,-0.13,0.36
0.196,-0.63,0.02,0.39,-0.49,-0.13,0.36
0.196,-0.63,0.02,0.39,-0.48,-0.14,0.37
0.201,-0.53,0.03,0.46,-0.48,-0.14,0.37
0.201,-0.53,0.03,0.46,-0.46,-0.14,0.39
0.201,-0.53,0.03,0.46,-0.44,-0.14,0.40
0.205,-0.53,0.03,0.46,-0.42,-0.14,0.42
0.205,-0.53,0.03,0.46,-0.41,-0.14,0.42
0.206,-0.42,0.08,0.52,-0.41,-0.14,0.42
0.208,-0.26,0.07,0.53,-0.41,-0.14,0.42
0.208,-0.26,0.07,0.53,-0.39,-0.14,0.43
0.212,-0.26,0.07,0.53,-0.37,-0.13,0.44
0.212,-0.10,0.07,0.52,-0.37,-0.13,0.44
0.213,-0.10,0.07,0.52,-0.35,-0.12,0.44
0.216,0.08,0.07,0.50,-0.35,-0.12,0.44
0.216,0.08,0.07,0.50,-0.34,-0.11,0.43
0.222,0.26,0.02,0.41,-0.34,-0.11,0.43
0.222,0.26,0.02,0.41,-0.33,-0.10,0.43
0.222,0.26,0.02,0.41,-0.32,-0.08,0.42
0.225,0.40,-0.01,0.30,-0.32,-0.08,0.42
0.225,0.40,-0.01,0.30,-0.32,-0.06,0.41
0.225,0.40,-0.01,0.30,-0.32,-0.04,0.39
0.228,0.51,-0.09,0.14,-0.32,-0.04,0.39
0.229,0.51,-0.09,0.14,-0.33,-0.01,0.38
0.232,0.53,-0.13,-0.05,-0.33,-0.01,0.38
0.232,0.53,-0.13,-0.05,-0.34,0.03,0.36
0.232,0.53,-0.13,-0.05,-0.37,0.06,0.34
0.237,0.51,-0.21,-0.29,-0.37,0.06,0.34
0.238,0.51,-0.21,-0.29,-0.39,0.10,0.32
0.24,0.51,-0.21,-0.29,-0.42,0.13,0.30
0.24,0.45,-0.27,-0.47,-0.42,0.13,0.30
0.24,0.45,-0.27,-0.47,-0.46,0.16,0.28
0.245,0.45,-0.27,-0.47,-0.49,0.19,0.26
0.246,0.33,-0.29,-0.65,-0.49,0.19,0.26
0.246,0.33,-0.29,-0.65,-0.53,0.21,0.25
0.248,0.19,-0.27,-0.75,-0.53,0.21,0.25
0.249,0.19,-0.27,-0.75,-0.57,0.22,0.24
0.252,0.02,-0.25,-0.80,-0.57,0.22,0.24
0.252,0.02,-0.25,-0.80,-0.61,0.24,0.23
0.252,0.02,-0.25,-0.80,-0.65,0.25,0.23
0.256,-0.19,-0.20,-0.78,-0.65,0.25,0.23
0.256,-0.19,-0.20,-0.78,-0.69,0.25,0.24
0.26,-0.19,-0.20,-0.78,-0.73,0.26,0.25
0.261,-0.33,-0.15,-0.73,-0.73,0.26,0.25
0.262,-0.33,-0.15,-0.73,-0.76,0.26,0.26
0.265,-0.47,-0.11,-0.60,-0.76,0.26,0.26
0.265,-0.47,-0.11,-0.60,-0.79,0.25,0.27
0.265,-0.47,-0.11,-0.60,-0.82,0.25,0.29
0.268,-0.58,-0.05,-0.43,-0.82,0.25,0.29
0.271,-0.58,-0.05,-0.43,-0.83,0.24,0.31
0.272,-0.58,-0.05,-0.43,-0.84,0.24,0.34
0.272,-0.63,-0.08,-0.24,-0.84,0.24,0.34
0.272,-0.63,-0.08,-0.24,-0.86,0.23,0.36
0.276,-0.63,-0.02,-0.03,-0.86,0.23,0.36
0.276,-0.63,-0.02,-0.03,-0.86,0.21,0.38
0.28,-0.61,0.02,0.19,-0.86,0.21,0.38
0.28,-0.61,0.02,0.19,-0.85,0.20,0.41
0.281,-0.61,0.02,0.19,-0.84,0.18,0.43
0.289,-0.59,0.06,0.45,-0.84,0.18,0.43
0.289,-0.59,0.06,0.45,-0.83,0.15,0.45
0.29,-0.59,0.06,0.45,-0.81,0.13,0.47
0.29,-0.50,0.10,0.71,-0.81,0.13,0.47
0.291,-0.50,0.10,0.71,-0.78,0.11,0.49
0.293,-0.40,0.16,0.94,-0.78,0.11,0.49
0.294,-0.40,0.16,0.94,-0.74,0.09,0.51
0.294,-0.40,0.16,0.94,-0.71,0.07,0.52
0.296,-0.28,0.18,1.15,-0.71,0.07,0.52
0.319,-0.28,0.18,1.15,-0.66,0.05,0.53
0.319,-0.16,0.21,1.26,-0.66,0.05,0.53
0.319,-0.16,0.21,1.26,-0.62,0.04,0.54
0.319,-0.16,0.21,1.26,-0.58,0.04,0.55
0.32,0.02,0.24,1.34,-0.58,0.04,0.55
0.32,0.02,0.24,1.34,-0.53,0.03,0.56
0.32,0.02,0.24,1.34,-0.48,0.03,0.56
0.32,0.16,0.28,1.31,-0.48,0.03,0.56
0.32,0.16,0.28,1.31,-0.44,0.04,0.55
0.32,0.34,0.27,1.24,-0.44,0.04,0.55
0.32,0.34,0.27,1.24,-0.40,0.04,0.55
0.32,0.34,0.27,1.24,-0.36,0.05,0.54
0.321,0.45,0.23,1.07,-0.36,0.05,0.54
0.321,0.45,0.23,1.07,-0.33,0.07,0.52
0.321,0.57,0.16,0.82,-0.33,0.07,0.52
0.321,0.57,0.16,0.82,-0.31,0.09,0.51
0.321,0.57,0.16,0.82,-0.30,0.11,0.48
0.325,0.60,0.06,0.52,-0.30,0.11,0.48
0.325,0.60,0.06,0.52,-0.30,0.14,0.46
0.328,0.59,0.01,0.20,-0.30,0.14,0.46
0.329,0.59,0.01,0.20,-0.30,0.17,0.44
0.329,0.59,0.01,0.20,-0.31,0.19,0.42
0.333,0.57,-0.03,-0.10,-0.31,0.19,0.42
0.333,0.57,-0.03,-0.10,-0.32,0.21,0.40
0.333,0.57,-0.03,-0.10,-0.34,0.23,0.38
0.335,0.48,-0.05,-0.30,-0.34,0.23,0.38
0.339,0.48,-0.05,-0.30,-0.37,0.24,0.36
0.344,0.37,-0.05,-0.45,-0.37,0.24,0.36
0.346,0.37,-0.05,-0.45,-0.40,0.26,0.35
0.347,0.37,-0.05,-0.45,-0.43,0.27,0.34
0.347,0.37,-0.05,-0.45,-0.46,0.29,0.34
0.353,0.22,-0.04,-0.52,-0.46,0.29,0.34
0.353,0.22,-0.04,-0.52,-0.50,0.31,0.34
0.353,0.22,-0.04,-0.52,-0.54,0.34,0.34
0.355,0.22,-0.04,-0.52,-0.57,0.38,0.34
0.355,0.09,-0.06,-0.59,-0.57,0.38,0.34
0.355,0.09,-0.06,-0.59,-0.61,0.42,0.34
0.355,0.00,-0.13,-0.64,-0.61,0.42,0.34
0.357,-0.11,-0.25,-0.70,-0.61,0.42,0.34
0.357,-0.11,-0.25,-0.70,-0.66,0.46,0.34
0.36,-0.21,-0.36,-0.75,-0.66,0.46,0.34
0.361,-0.21,-0.36,-0.75,-0.70,0.51,0.35
0.361,-0.21,-0.36,-0.75,-0.74,0.56,0.35
0.365,-0.26,-0.46,-0.79,-0.74,0.56,0.35
0.365,-0.26,-0.46,-0.79,-0.78,0.60,0.35
0.366,-0.36,-0.49,-0.79,-0.78,0.60,0.35
0.367,-0.36,-0.49,-0.79,-0.83,0.64,0.35
0.368,-0.36,-0.49,-0.79,-0.87,0.68,0.36
0.372,-0.50,-0.51,-0.75,-0.87,0.68,0.36
0.373,-0.50,-0.51,-0.75,-0.91,0.71,0.37
0.373,-0.50,-0.51,-0.75,-0.94,0.74,0.38
0.376,-0.62,-0.47,-0.70,-0.94,0.74,0.38
0.376,-0.62,-0.47,-0.70,-0.97,0.77,0.39
0.381,-0.62,-0.47,-0.70,-1.00,0.79,0.41
0.381,-0.75,-0.45,-0.60,-1.00,0.79,0.41
0.381,-0.75,-0.45,-0.60,-1.03,0.81,0.43
0.384,-0.86,-0.40,-0.52,-1.03,0.81,0.43
0.385,-0.86,-0.40,-0.52,-1.05,0.83,0.45
0.388,-0.86,-0.40,-0.52,-1.07,0.85,0.46
0.389,-0.95,-0.36,-0.48,-1.07,0.85,0.46
0.389,-0.95,-0.36,-0.48,-1.09,0.86,0.49
0.392,-0.97,-0.30,-0.43,-1.09,0.86,0.49
0.393,-0.97,-0.30,-0.43,-1.11,0.88,0.51
0.393,-0.97,-0.30,-0.43,-1.12,0.89,0.53
0.396,-0.93,-0.25,-0.35,-1.12,0.89,0.53
0.396,-0.93,-0.25,-0.35,-1.13,0.89,0.55
0.4,-0.93,-0.25,-0.35,-1.14,0.89,0.57
0.401,-0.93,-0.25,-0.35,-1.15,0.89,0.59
0.401,-0.88,-0.23,-0.30,-1.15,0.89,0.59
0.404,-0.81,-0.19,-0.25,-1.15,0.89,0.59
0.405,-0.81,-0.19,-0.25,-1.15,0.89,0.61
0.408,-0.68,-0.16,-0.18,-1.15,0.89,0.61
0.409,-0.68,-0.16,-0.18,-1.15,0.88,0.63
0.409,-0.68,-0.16,-0.18,-1.16,0.87,0.64
0.412,-0.68,-0.16,-0.18,-1.16,0.85,0.65
0.413,-0.55,-0.12,-0.10,-1.16,0.85,0.65
0.413,-0.55,-0.12,-0.10,-1.16,0.84,0.66
0.416,-0.42,-0.06,-0.07,-1.16,0.84,0.66
0.416,-0.42,-0.06,-0.07,-1.15,0.83,0.67
0.42,-0.42,-0.06,-0.07,-1.15,0.81,0.68
0.422,-0.31,-0.03,-0.09,-1.15,0.81,0.68
0.422,-0.31,-0.03,-0.09,-1.14,0.80,0.69
0.425,-0.21,-0.04,-0.02,-1.14,0.80,0.69
0.425,-0.21,-0.04,-0.02,-1.14,0.78,0.69
0.428,-0.11,-0.03,0.02,-1.14,0.78,0.69
0.428,-0.11,-0.03,0.02,-1.13,0.77,0.69
0.429,-0.11,-0.03,0.02,-1.13,0.76,0.69
0.432,0.01,-0.07,0.03,-1.13,0.76,0.69
0.432,0.01,-0.07,0.03,-1.13,0.76,0.68
0.433,0.01,-0.07,0.03,-1.13,0.77,0.68
0.436,0.10,-0.12,-0.01,-1.13,0.77,0.68
0.436,0.10,-0.12,-0.01,-1.14,0.78,0.67
0.44,0.10,-0.12,-0.01,-1.15,0.81,0.66
0.44,0.16,-0.13,-0.02,-1.15,0.81,0.66
0.441,0.16,-0.13,-0.02,-1.16,0.83,0.64
0.445,0.19,-0.14,-0.06,-1.16,0.83,0.64
0.445,0.19,-0.14,-0.06,-1.17,0.86,0.63
0.448,0.19,-0.14,-0.04,-1.17,0.86,0.63
0.448,0.19,-0.14,-0.04,-1.19,0.89,0.62
0.449,0.19,-0.14,-0.04,-1.20,0.92,0.61
0.47,0.19,-0.14,-0.04,-1.22,0.96,0.60
0.47,0.20,-0.11,0.00,-1.22,0.96,0.60
0.471,0.20,-0.11,0.00,-1.24,1.00,0.59
0.471,0.19,-0.12,0.03,-1.24,1.00,0.59
0.471,0.19,-0.12,0.03,-1.26,1.04,0.58
0.472,0.19,-0.12,0.03,-1.29,1.09,0.58
0.472,0.15,-0.14,0.06,-1.29,1.09,0.58
0.472,0.15,-0.14,0.06,-1.31,1.14,0.57
0.473,0.14,-0.12,0.07,-1.31,1.14,0.57
0.473,0.14,-0.12,0.07,-1.33,1.18,0.57
0.473,0.14,-0.12,0.07,-1.35,1.22,0.58
0.473,0.14,-0.12,0.07,-1.37,1.26,0.58
0.474,0.12,-0.11,0.08,-1.37,1.26,0.58
0.474,0.02,-0.09,0.12,-1.37,1.26,0.58
0.474,0.02,-0.09,0.12,-1.39,1.29,0.59
0.475,0.02,-0.09,0.12,-1.40,1.32,0.60
0.476,-0.05,-0.03,0.20,-1.40,1.32,0.60
0.477,-0.05,-0.03,0.20,-1.42,1.34,0.61
0.48,-0.05,-0.03,0.20,-1.42,1.36,0.63
0.48,-0.09,0.03,0.33,-1.42,1.36,0.63
0.48,-0.09,0.03,0.33,-1.43,1.37,0.65
0.484,-0.07,0.16,0.51,-1.43,1.37,0.65
0.484,-0.07,0.16,0.51,-1.42,1.37,0.66
0.487,-0.00,0.25,0.73,-1.42,1.37,0.66
0.488,-0.00,0.25,0.73,-1.41,1.36,0.68
0.488,-0.00,0.25,0.73,-1.40,1.35,0.70
0.492,0.12,0.34,1.01,-1.40,1.35,0.70
0.493,0.12,0.34,1.01,-1.38,1.33,0.71
0.493,0.12,0.34,1.01,-1.35,1.29,0.73
0.496,0.19,0.45,1.32,-1.35,1.29,0.73
0.496,0.19,0.45,1.32,-1.31,1.26,0.74
0.5,0.19,0.45,1.32,-1.27,1.21,0.76
0.5,0.29,0.51,1.65,-1.27,1.21,0.76
0.501,0.29,0.51,1.65,-1.22,1.16,0.77
0.506,0.29,0.51,1.65,-1.16,1.10,0.77
0.507,0.44,0.61,1.96,-1.16,1.10,0.77
0.508,0.60,0.69,2.19,-1.16,1.10,0.77
0.508,0.60,0.69,2.19,-1.09,1.05,0.78
0.508,0.60,0.69,2.19,-1.02,0.99,0.78
0.512,0.79,0.73,2.33,-1.02,0.99,0.78
0.512,0.79,0.73,2.33,-0.94,0.95,0.78
0.512,0.79,0.73,2.33,-0.87,0.90,0.78
0.516,1.03,0.77,2.36,-0.87,0.90,0.78
0.516,1.03,0.77,2.36,-0.79,0.85,0.77
0.521,1.03,0.77,2.36,-0.71,0.80,0.76
0.522,1.03,0.77,2.36,-0.63,0.75,0.75
0.522,1.18,0.82,2.32,-0.63,0.75,0.75
0.524,1.35,0.85,2.20,-0.63,0.75,0.75
0.524,1.35,0.85,2.20,-0.56,0.69,0.74
0.528,1.52,0.86,1.97,-0.56,0.69,0.74
0.528,1.52,0.86,1.97,-0.50,0.64,0.72
0.529,1.52,0.86,1.97,-0.43,0.57,0.70
0.532,1.52,0.86,1.97,-0.38,0.51,0.68
0.532,1.59,0.86,1.69,-0.38,0.51,0.68
0.533,1.59,0.86,1.69,-0.34,0.45,0.65
0.536,1.62,0.83,1.37,-0.34,0.45,0.65
0.536,1.62,0.83,1.37,-0.30,0.40,0.63
0.54,1.62,0.79,1.01,-0.30,0.40,0.63
0.541,1.62,0.79,1.01,-0.27,0.35,0.61
0.541,1.62,0.79,1.01,-0.24,0.30,0.58
0.545,1.55,0.80,0.69,-0.24,0.30,0.58
0.545,1.55,0.80,0.69,-0.23,0.25,0.55
0.548,1.50,0.77,0.38,-0.23,0.25,0.55
0.548,1.50,0.77,0.38,-0.22,0.21,0.53
0.548,1.50,0.77,0.38,-0.21,0.17,0.50
0.553,1.50,0.77,0.38,-0.21,0.14,0.47
0.553,1.50,0.77,0.38,-0.22,0.12,0.44
0.554,1.41,0.72,0.09,-0.22,0.12,0.44
0.556,1.22,0.61,-0.18,-0.22,0.12,0.44
0.558,1.22,0.61,-0.18,-0.23,0.11,0.42
0.561,1.22,0.61,-0.18,-0.25,0.11,0.39
0.561,1.00,0.52,-0.40,-0.25,0.11,0.39
0.561,1.00,0.52,-0.40,-0.28,0.11,0.37
0.564,1.00,0.52,-0.40,-0.30,0.12,0.35
0.565,0.69,0.36,-0.55,-0.30,0.12,0.35
0.566,0.38,0.22,-0.66,-0.30,0.12,0.35
0.567,0.38,0.22,-0.66,-0.33,0.14,0.33
0.568,0.38,0.22,-0.66,-0.36,0.17,0.32
0.57,0.38,0.22,-0.66,-0.40,0.20,0.31
0.572,0.10,0.05,-0.68,-0.40,0.20,0.31
0.572,0.10,0.05,-0.68,-0.43,0.24,0.31
0.576,-0.19,-0.12,-0.65,-0.43,0.24,0.31
0.576,-0.19,-0.12,-0.65,-0.47,0.30,0.31
0.58,-0.19,-0.12,-0.65,-0.51,0.35,0.31
0.581,-0.45,-0.27,-0.68,-0.51,0.35,0.31
0.581,-0.45,-0.27,-0.68,-0.55,0.42,0.31
0.585,-0.45,-0.27,-0.68,-0.59,0.48,0.32
0.585,-0.65,-0.38,-0.70,-0.59,0.48,0.32
0.588,-0.65,-0.38,-0.70,-0.62,0.54,0.32
0.589,-0.65,-0.38,-0.70,-0.66,0.59,0.33
0.589,-0.81,-0.41,-0.75,-0.66,0.59,0.33
0.593,-0.94,-0.36,-0.73,-0.66,0.59,0.33
0.593,-0.94,-0.36,-0.73,-0.69,0.64,0.34
0.593,-0.94,-0.36,-0.73,-0.73,0.68,0.35
0.596,-1.00,-0.29,-0.65,-0.73,0.68,0.35
0.596,-1.00,-0.29,-0.65,-0.75,0.71,0.37
0.6,-1.00,-0.29,-0.65,-0.77,0.73,0.38
0.6,-0.97,-0.16,-0.49,-0.77,0.73,0.38
0.601,-0.97,-0.16,-0.49,-0.78,0.75,0.39
0.607,-0.91,-0.02,-0.36,-0.78,0.75,0.39
0.624,-0.91,-0.02,-0.36,-0.79,0.77,0.40
0.624,-0.91,-0.02,-0.36,-0.79,0.77,0.41
0.624,-0.91,-0.02,-0.36,-0.79,0.78,0.41
0.624,-0.79,0.13,-0.21,-0.79,0.78,0.41
0.625,-0.79,0.13,-0.21,-0.78,0.78,0.41
0.625,-0.79,0.13,-0.21,-0.76,0.77,0.41
0.625,-0.63,0.33,-0.06,-0.76,0.77,0.41
0.625,-0.63,0.33,-0.06,-0.75,0.77,0.41
0.625,-0.45,0.51,0.06,-0.75,0.77,0.41
0.626,-0.45,0.51,0.06,-0.73,0.76,0.40
0.626,-0.28,0.67,0.17,-0.73,0.76,0.40
0.626,-0.28,0.67,0.17,-0.70,0.75,0.39
0.627,-0.06,0.81,0.28,-0.70,0.75,0.39
0.627,-0.06,0.81,0.28,-0.67,0.74,0.38
0.627,-0.06,0.81,0.28,-0.64,0.73,0.36
0.628,0.15,0.88,0.40,-0.64,0.73,0.36
0.628,0.15,0.88,0.40,-0.61,0.72,0.35
0.631,0.15,0.88,0.40,-0.58,0.71,0.33
0.632,0.28,0.95,0.46,-0.58,0.71,0.33
0.632,0.28,0.95,0.46,-0.55,0.71,0.31
0.635,0.36,0.98,0.44,-0.55,0.71,0.31
0.636,0.36,0.98,0.44,-0.52,0.71,0.29
0.641,0.38,0.95,0.41,-0.52,0.71,0.29
0.641,0.38,0.95,0.41,-0.49,0.71,0.27
0.642,0.38,0.95,0.41,-0.46,0.71,0.26
0.644,0.38,0.95,0.41,-0.43,0.71,0.25
0.644,0.37,0.93,0.33,-0.43,0.71,0.25
0.648,0.32,0.91,0.24,-0.43,0.71,0.25
0.648,0.32,0.91,0.24,-0.41,0.71,0.23
0.648,0.32,0.91,0.24,-0.39,0.70,0.23
0.651,0.28,0.90,0.15,-0.39,0.70,0.23
0.652,0.28,0.90,0.15,-0.37,0.69,0.22
0.652,0.28,0.90,0.15,-0.35,0.68,0.22
0.655,0.17,0.93,0.06,-0.35,0.68,0.22
0.656,0.17,0.93,0.06,-0.33,0.66,0.23
0.66,0.17,0.93,0.06,-0.31,0.63,0.23
0.66,0.06,0.95,0.02,-0.31,0.63,0.23
0.66,0.06,0.95,0.02,-0.29,0.60,0.24
0.664,0.06,0.95,0.02,-0.28,0.56,0.25
0.664,-0.02,0.97,-0.04,-0.28,0.56,0.25
0.667,-0.07,0.97,-0.10,-0.28,0.56,0.25
0.668,-0.07,0.97,-0.10,-0.26,0.53,0.26
0.668,-0.07,0.97,-0.10,-0.25,0.49,0.27
0.672,-0.07,0.97,-0.10,-0.23,0.45,0.27
0.673,-0.01,0.95,-0.15,-0.23,0.45,0.27
0.673,-0.01,0.95,-0.15,-0.21,0.41,0.28
0.676,0.07,0.92,-0.15,-0.21,0.41,0.28
0.677,0.07,0.92,-0.15,-0.19,0.37,0.29
0.68,0.16,0.89,-0.13,-0.19,0.37,0.29
0.681,0.16,0.89,-0.13,-0.18,0.32,0.29
0.681,0.16,0.89,-0.13,-0.17,0.28,0.29
0.684,0.31,0.79,-0.12,-0.17,0.28,0.29
0.685,0.31,0.79,-0.12,-0.15,0.23,0.28
0.688,0.44,0.65,-0.13,-0.15,0.23,0.28
0.689,0.44,0.65,-0.13,-0.14,0.19,0.26
0.689,0.44,0.65,-0.13,-0.13,0.16,0.25
0.693,0.51,0.46,-0.13,-0.13,0.16,0.25
0.693,0.51,0.46,-0.13,-0.12,0.13,0.23
0.693,0.51,0.46,-0.13,-0.12,0.11,0.21
0.696,0.44,0.22,-0.06,-0.12,0.11,0.21
0.696,0.44,0.22,-0.06,-0.12,0.09,0.19
0.7,0.33,-0.07,0.02,-0.12,0.09,0.19
0.701,0.33,-0.07,0.02,-0.12,0.09,0.17
0.701,0.33,-0.07,0.02,-0.12,0.09,0.16
0.705,0.20,-0.37,0.07,-0.12,0.09,0.16
0.706,0.20,-0.37,0.07,-0.12,0.11,0.15
0.708,0.20,-0.37,0.07,-0.13,0.13,0.15
0.708,0.20,-0.37,0.07,-0.14,0.16,0.15
0.709,0.11,-0.60,0.09,-0.14,0.16,0.15
0.712,0.11,-0.60,0.09,-0.15,0.19,0.16
0.713,0.11,-0.60,0.09,-0.17,0.22,0.18
0.713,-0.05,-0.78,0.06,-0.17,0.22,0.18
0.716,-0.21,-0.90,0.10,-0.17,0.22,0.18
0.717,-0.21,-0.90,0.10,-0.18,0.24,0.20
0.719,-0.21,-0.90,0.10,-0.20,0.27,0.22
0.72,-0.35,-0.95,0.13,-0.20,0.27,0.22
0.724,-0.35,-0.95,0.13,-0.21,0.28,0.25
0.725,-0.42,-0.92,0.17,-0.21,0.28,0.25
0.725,-0.42,-0.92,0.17,-0.22,0.30,0.28
0.73,-0.42,-0.92,0.17,-0.23,0.30,0.31
0.73,-0.42,-0.92,0.17,-0.24,0.30,0.34
0.73,-0.42,-0.78,0.20,-0.24,0.30,0.34
0.731,-0.35,-0.63,0.23,-0.24,0.30,0.34
0.733,-0.35,-0.63,0.23,-0.25,0.30,0.37
0.733,-0.35,-0.63,0.23,-0.25,0.29,0.40
0.736,-0.23,-0.50,0.28,-0.25,0.29,0.40
0.737,-0.23,-0.50,0.28,-0.25,0.27,0.43
0.741,-0.07,-0.33,0.34,-0.25,0.27,0.43
0.742,-0.07,-0.33,0.34,-0.25,0.25,0.45
0.742,-0.07,-0.33,0.34,-0.24,0.22,0.47
0.744,0.10,-0.14,0.44,-0.24,0.22,0.47
0.744,0.10,-0.14,0.44,-0.23,0.19,0.48
0.747,0.27,0.04,0.55,-0.23,0.19,0.48
0.748,0.27,0.04,0.55,-0.21,0.15,0.49
0.748,0.27,0.04,0.55,-0.19,0.11,0.49
0.751,0.27,0.04,0.55,-0.17,0.07,0.49
0.752,0.41,0.23,0.65,-0.17,0.07,0.49
0.753,0.41,0.23,0.65,-0.14,0.02,0.49
0.757,0.54,0.41,0.79,-0.14,0.02,0.49
0.757,0.54,0.41,0.79,-0.11,-0.02,0.48
0.779,0.54,0.41,0.79,-0.08,-0.06,0.46
0.779,0.70,0.54,0.88,-0.08,-0.06,0.46
0.779,0.70,0.54,0.88,-0.05,-0.10,0.44
0.779,0.70,0.54,0.88,-0.02,-0.13,0.42
0.78,0.84,0.59,0.94,-0.02,-0.13,0.42
0.78,0.95,0.67,0.94,-0.02,-0.13,0.42
0.78,0.95,0.67,0.94,0.01,-0.16,0.39
0.78,0.95,0.67,0.94,0.04,-0.19,0.36
0.78,1.05,0.65,0.91,0.04,-0.19,0.36
0.781,1.05,0.65,0.91,0.07,-0.21,0.33
0.781,1.05,0.65,0.91,0.10,-0.23,0.29
0.781,1.05,0.65,0.91,0.12,-0.25,0.26
0.781,1.08,0.63,0.80,0.12,-0.25,0.26
0.781,1.05,0.55,0.66,0.12,-0.25,0.26
0.781,1.05,0.55,0.66,0.14,-0.26,0.23
0.782,1.05,0.55,0.66,0.15,-0.27,0.19
0.784,1.00,0.47,0.50,0.15,-0.27,0.19
0.785,1.00,0.47,0.50,0.16,-0.28,0.16
0.788,0.91,0.35,0.29,0.16,-0.28,0.16
0.789,0.91,0.35,0.29,0.17,-0.29,0.13
0.789,0.91,0.35,0.29,0.16,-0.30,0.10
0.792,0.81,0.25,0.10,0.16,-0.30,0.10
0.792,0.81,0.25,0.10,0.16,-0.30,0.07
0.792,0.81,0.25,0.10,0.15,-0.29,0.04
0.796,0.71,0.14,-0.06,0.15,-0.29,0.04
0.796,0.71,0.14,-0.06,0.14,-0.29,0.01
0.8,0.61,0.01,-0.26,0.14,-0.29,0.01
0.8,0.61,0.01,-0.26,0.12,-0.28,-0.02
0.8,0.61,0.01,-0.26,0.10,-0.27,-0.04
0.805,0.51,-0.12,-0.43,0.10,-0.27,-0.04
0.805,0.51,-0.12,-0.43,0.08,-0.26,-0.06
0.811,0.51,-0.12,-0.43,0.06,-0.24,-0.08
0.812,0.51,-0.12,-0.43,0.03,-0.23,-0.10
0.812,0.37,-0.20,-0.56,0.03,-0.23,-0.10
0.812,0.29,-0.28,-0.67,0.03,-0.23,-0.10
0.814,0.29,-0.28,-0.67,0.01,-0.22,-0.12
0.814,0.29,-0.28,-0.67,-0.02,-0.22,-0.13
0.816,0.17,-0.31,-0.71,-0.02,-0.22,-0.13
0.816,0.17,-0.31,-0.71,-0.05,-0.21,-0.14
0.82,0.17,-0.31,-0.71,-0.07,-0.21,-0.15
0.82,0.09,-0.32,-0.70,-0.07,-0.21,-0.15
0.82,0.09,-0.32,-0.70,-0.10,-0.22,-0.16
0.824,-0.01,-0.27,-0.64,-0.10,-0.22,-0.16
0.825,-0.01,-0.27,-0.64,-0.12,-0.22,-0.16
0.828,-0.13,-0.23,-0.61,-0.12,-0.22,-0.16
0.828,-0.13,-0.23,-0.61,-0.14,-0.22,-0.16
0.828,-0.13,-0.23,-0.61,-0.15,-0.23,-0.16
0.832,-0.19,-0.17,-0.51,-0.15,-0.23,-0.16
0.832,-0.19,-0.17,-0.51,-0.17,-0.24,-0.16
0.832,-0.19,-0.17,-0.51,-0.18,-0.25,-0.15
0.836,-0.22,-0.08,-0.35,-0.18,-0.25,-0.15
0.836,-0.22,-0.08,-0.35,-0.18,-0.26,-0.15
0.842,-0.22,-0.08,-0.35,-0.18,-0.27,-0.15
0.842,-0.18,0.00,-0.19,-0.18,-0.27,-0.15
0.843,-0.18,0.00,-0.19,-0.18,-0.28,-0.15
0.844,-0.17,0.02,-0.01,-0.18,-0.28,-0.15
0.844,-0.17,0.02,-0.01,-0.18,-0.29,-0.15
0.848,-0.25,-0.03,0.14,-0.18,-0.29,-0.15
0.848,-0.25,-0.03,0.14,-0.18,-0.29,-0.16
0.848,-0.25,-0.03,0.14,-0.18,-0.27,-0.17
0.852,-0.35,-0.19,0.25,-0.18,-0.27,-0.17
0.852,-0.35,-0.19,0.25,-0.18,-0.24,-0.18
0.852,-0.35,-0.19,0.25,-0.18,-0.20,-0.18
0.855,-0.51,-0.39,0.26,-0.18,-0.20,-0.18
0.857,-0.51,-0.39,0.26,-0.18,-0.14,-0.19
0.861,-0.73,-0.61,0.27,-0.18,-0.14,-0.19
0.861,-0.73,-0.61,0.27,-0.19,-0.08,-0.20
0.861,-0.73,-0.61,0.27,-0.20,-0.02,-0.19
0.865,-0.73,-0.61,0.27,-0.21,0.05,-0.19
0.865,-1.05,-0.81,0.25,-0.21,0.05,-0.19
0.868,-1.05,-0.81,0.25,-0.22,0.11,-0.18
0.868,-1.37,-0.99,0.23,-0.22,0.11,-0.18
0.869,-1.37,-0.99,0.23,-0.24,0.17,-0.16
0.873,-1.73,-1.07,0.19,-0.24,0.17,-0.16
0.874,-1.73,-1.07,0.19,-0.25,0.23,-0.13
0.874,-1.73,-1.07,0.19,-0.27,0.28,-0.10
0.876,-2.03,-1.08,0.15,-0.27,0.28,-0.10
0.876,-2.03,-1.08,0.15,-0.28,0.33,-0.06
0.88,-2.03,-1.08,0.15,-0.30,0.38,-0.01
0.88,-2.26,-1.07,0.14,-0.30,0.38,-0.01
0.881,-2.26,-1.07,0.14,-0.30,0.42,0.03
0.884,-2.42,-1.00,0.16,-0.30,0.42,0.03
0.884,-2.42,-1.00,0.16,-0.31,0.46,0.08
0.888,-2.45,-0.88,0.18,-0.31,0.46,0.08
0.889,-2.45,-0.88,0.18,-0.32,0.48,0.13
0.889,-2.45,-0.88,0.18,-0.32,0.50,0.18
0.892,-2.45,-0.88,0.18,-0.31,0.52,0.23
0.892,-2.33,-0.73,0.20,-0.31,0.52,0.23
0.893,-2.33,-0.73,0.20,-0.31,0.53,0.28
0.896,-2.11,-0.58,0.27,-0.31,0.53,0.28
0.897,-2.11,-0.58,0.27,-0.30,0.53,0.32
0.9,-2.11,-0.58,0.27,-0.29,0.52,0.36
0.9,-2.11,-0.58,0.27,-0.27,0.51,0.39
0.901,-1.82,-0.46,0.36,-0.27,0.51,0.39
0.904,-1.50,-0.29,0.44,-0.27,0.51,0.39
0.905,-1.50,-0.29,0.44,-0.25,0.49,0.42
0.908,-1.13,-0.17,0.51,-0.25,0.49,0.42
0.908,-1.13,-0.17,0.51,-0.22,0.46,0.44
0.909,-1.13,-0.17,0.51,-0.20,0.44,0.46
0.912,-0.80,-0.03,0.56,-0.20,0.44,0.46
0.931,-0.80,-0.03,0.56,-0.17,0.40,0.47
0.932,-0.80,-0.03,0.56,-0.14,0.37,0.48
0.932,-0.46,0.08,0.56,-0.14,0.37,0.48
0.932,-0.46,0.08,0.56,-0.11,0.34,0.48
0.932,-0.46,0.08,0.56,-0.08,0.30,0.48
0.933,-0.07,0.15,0.52,-0.08,0.30,0.48
0.933,-0.07,0.15,0.52,-0.06,0.27,0.48
0.933,0.22,0.21,0.44,-0.06,0.27,0.48
0.933,0.22,0.21,0.44,-0.04,0.23,0.48
0.933,0.54,0.26,0.35,-0.04,0.23,0.48
0.934,0.54,0.26,0.35,-0.02,0.20,0.47
0.934,0.54,0.26,0.35,0.00,0.17,0.46
0.934,0.82,0.30,0.21,0.00,0.17,0.46
0.934,0.82,0.30,0.21,0.01,0.14,0.45
0.935,0.82,0.30,0.21,0.02,0.11,0.43
0.937,1.00,0.32,0.07,0.02,0.11,0.43
0.937,1.00,0.32,0.07,0.03,0.10,0.42
0.942,1.15,0.32,-0.09,0.03,0.10,0.42
0.943,1.15,0.32,-0.09,0.03,0.08,0.40
0.943,1.15,0.32,-0.09,0.02,0.07,0.38
0.944,1.27,0.31,-0.26,0.02,0.07,0.38
0.945,1.27,0.31,-0.26,0.01,0.06,0.36
0.948,1.39,0.29,-0.41,0.01,0.06,0.36
0.948,1.39,0.29,-0.41,-0.00,0.05,0.34
0.948,1.39,0.29,-0.41,-0.02,0.04,0.31
0.952,1.47,0.27,-0.49,-0.02,0.04,0.31
0.952,1.47,0.27,-0.49,-0.04,0.04,0.29
0.952,1.47,0.27,-0.49,-0.06,0.03,0.27
0.955,1.49,0.26,-0.51,-0.06,0.03,0.27
0.957,1.49,0.26,-0.51,-0.08,0.02,0.24
0.959,1.49,0.26,-0.51,-0.10,0.01,0.22
0.96,1.42,0.19,-0.46,-0.10,0.01,0.22
0.96,1.42,0.19,-0.46,-0.12,0.00,0.20
0.964,1.42,0.19,-0.46,-0.13,-0.00,0.18
0.965,1.29,0.05,-0.37,-0.13,-0.00,0.18
0.965,1.11,-0.08,-0.27,-0.13,-0.00,0.18
0.966,1.11,-0.08,-0.27,-0.15,-0.01,0.16
0.968,1.11,-0.08,-0.27,-0.16,-0.01,0.14
0.971,0.96,-0.25,-0.18,-0.16,-0.01,0.14
0.971,0.96,-0.25,-0.18,-0.18,-0.01,0.13
0.974,0.96,-0.25,-0.18,-0.19,-0.01,0.13
0.976,0.80,-0.40,-0.07,-0.19,-0.01,0.13
0.977,0.80,-0.40,-0.07,-0.20,-0.02,0.12
0.98,0.80,-0.40,-0.07,-0.20,-0.04,0.12
0.98,0.63,-0.52,0.08,-0.20,-0.04,0.12
0.981,0.63,-0.52,0.08,-0.20,-0.06,0.12
0.984,0.44,-0.53,0.25,-0.20,-0.06,0.12
0.985,0.44,-0.53,0.25,-0.20,-0.08,0.13
0.988,0.26,-0.54,0.42,-0.20,-0.08,0.13
0.988,0.26,-0.54,0.42,-0.19,-0.11,0.14
0.989,0.26,-0.54,0.42,-0.18,-0.13,0.15
0.992,0.26,-0.54,0.42,-0.16,-0.15,0.17
0.993,0.11,-0.48,0.56,-0.16,-0.15,0.17
0.993,0.11,-0.48,0.56,-0.15,-0.18,0.19
0.996,0.03,-0.41,0.70,-0.15,-0.18,0.19
0.997,0.03,-0.41,0.70,-0.13,-0.20,0.21
1.0,0.03,-0.41,0.70,-0.10,-0.22,0.22
1.001,-0.03,-0.34,0.79,-0.10,-0.22,0.22
1.001,-0.03,-0.34,0.79,-0.08,-0.24,0.24
1.004,0.02,-0.27,0.86,-0.08,-0.24,0.24
1.005,0.02,-0.27,0.86,-0.06,-0.26,0.25
1.008,0.13,-0.26,0.84,-0.06,-0.26,0.25
1.009,0.13,-0.26,0.84,-0.03,-0.28,0.26
1.009,0.13,-0.26,0.84,-0.01,-0.29,0.27
1.012,0.28,-0.24,0.78,-0.01,-0.29,0.27
1.013,0.28,-0.24,0.78,0.01,-0.30,0.27
1.013,0.28,-0.24,0.78,0.03,-0.31,0.27
1.017,0.28,-0.24,0.78,0.05,-0.31,0.26
1.017,0.44,-0.23,0.70,0.05,-0.31,0.26
1.02,0.50,-0.21,0.59,0.05,-0.31,0.26
1.02,0.50,-0.21,0.59,0.06,-0.32,0.26
1.021,0.50,-0.21,0.59,0.07,-0.32,0.25
1.024,0.50,-0.21,0.59,0.08,-0.33,0.24
1.025,0.55,-0.19,0.47,0.08,-0.33,0.24
1.028,0.56,-0.15,0.32,0.08,-0.33,0.24
1.028,0.56,-0.15,0.32,0.09,-0.33,0.23
1.029,0.56,-0.15,0.32,0.09,-0.32,0.22
1.032,0.56,-0.11,0.20,0.09,-0.32,0.22
1.032,0.56,-0.11,0.20,0.10,-0.32,0.21
1.033,0.56,-0.11,0.20,0.10,-0.32,0.20
1.036,0.52,-0.09,0.07,0.10,-0.32,0.20
1.036,0.52,-0.09,0.07,0.10,-0.31,0.19
1.042,0.50,-0.04,-0.08,0.10,-0.31,0.19
1.042,0.50,-0.04,-0.08,0.10,-0.30,0.19
1.043,0.50,-0.04,-0.08,0.09,-0.30,0.18
1.044,0.48,-0.03,-0.21,0.09,-0.30,0.18
1.044,0.48,-0.03,-0.21,0.08,-0.30,0.17
1.048,0.43,0.04,-0.32,0.08,-0.30,0.17
1.048,0.43,0.04,-0.32,0.07,-0.30,0.16
1.048,0.43,0.04,-0.32,0.06,-0.30,0.15
1.052,0.43,0.04,-0.32,0.05,-0.30,0.14
1.052,0.42,0.05,-0.39,0.05,-0.30,0.14
1.053,0.42,0.05,-0.39,0.04,-0.30,0.12
1.056,0.45,0.09,-0.43,0.04,-0.30,0.12
1.056,0.45,0.09,-0.43,0.03,-0.30,0.11
1.063,0.45,0.09,-0.43,0.02,-0.30,0.10
1.063,0.46,0.17,-0.47,0.02,-0.30,0.10
1.063,0.46,0.17,-0.47,0.01,-0.29,0.08
1.064,0.52,0.22,-0.50,0.01,-0.29,0.08
1.064,0.52,0.22,-0.50,0.00,-0.29,0.06
1.082,0.56,0.25,-0.48,0.00,-0.29,0.06
1.082,0.56,0.25,-0.48,-0.01,-0.29,0.04
1.082,0.56,0.25,-0.48,-0.02,-0.29,0.03
1.082,0.57,0.31,-0.46,-0.02,-0.29,0.03
1.082,0.57,0.31,-0.46,-0.03,-0.29,0.01
1.083,0.57,0.31,-0.46,-0.03,-0.29,-0.02
1.083,0.60,0.33,-0.47,-0.03,-0.29,-0.02
1.083,0.60,0.33,-0.47,-0.04,-0.29,-0.04
1.083,0.59,0.36,-0.44,-0.04,-0.29,-0.04
1.083,0.59,0.36,-0.44,-0.04,-0.30,-0.06
1.083,0.59,0.36,-0.44,-0.04,-0.30,-0.08
1.084,0.61,0.35,-0.42,-0.04,-0.30,-0.08
1.085,0.61,0.35,-0.42,-0.05,-0.31,-0.10
1.088,0.61,0.35,-0.42,-0.05,-0.32,-0.12
1.089,0.60,0.38,-0.40,-0.05,-0.32,-0.12
1.093,0.60,0.38,-0.40,-0.05,-0.32,-0.15
1.093,0.64,0.35,-0.40,-0.05,-0.32,-0.15
1.094,0.64,0.35,-0.40,-0.06,-0.33,-0.17
1.094,0.64,0.35,-0.40,-0.06,-0.33,-0.20
1.095,0.64,0.33,-0.43,-0.06,-0.33,-0.20
1.096,0.64,0.33,-0.43,-0.07,-0.33,-0.23
1.1,0.66,0.25,-0.46,-0.07,-0.33,-0.23
1.1,0.66,0.25,-0.46,-0.08,-0.33,-0.26
1.1,0.66,0.25,-0.46,-0.08,-0.31,-0.29
1.104,0.66,0.25,-0.46,-0.09,-0.29,-0.32
1.105,0.53,0.18,-0.47,-0.09,-0.29,-0.32
1.109,0.37,0.07,-0.47,-0.09,-0.29,-0.32
1.109,0.37,0.07,-0.47,-0.10,-0.27,-0.34
1.11,0.37,0.07,-0.47,-0.11,-0.24,-0.36
1.113,0.37,0.07,-0.47,-0.13,-0.21,-0.37
1.115,0.13,-0.07,-0.47,-0.13,-0.21,-0.37
1.115,0.13,-0.07,-0.47,-0.14,-0.17,-0.38
1.115,-0.14,-0.20,-0.44,-0.14,-0.17,-0.38
1.117,-0.14,-0.20,-0.44,-0.16,-0.14,-0.38
1.121,-0.50,-0.34,-0.43,-0.16,-0.14,-0.38
1.121,-0.50,-0.34,-0.43,-0.18,-0.10,-0.38
1.122,-0.50,-0.34,-0.43,-0.20,-0.06,-0.37
1.125,-0.50,-0.34,-0.43,-0.22,-0.01,-0.36
1.125,-0.78,-0.51,-0.44,-0.22,-0.01,-0.36
1.128,-1.02,-0.65,-0.43,-0.22,-0.01,-0.36
1.128,-1.02,-0.65,-0.43,-0.24,0.04,-0.34
1.128,-1.02,-0.65,-0.43,-0.26,0.09,-0.31
1.132,-1.02,-0.65,-0.43,-0.28,0.14,-0.28
1.132,-1.23,-0.78,-0.44,-0.28,0.14,-0.28
1.132,-1.23,-0.78,-0.44,-0.29,0.18,-0.25
1.136,-1.35,-0.83,-0.44,-0.29,0.18,-0.25
1.136,-1.35,-0.83,-0.44,-0.31,0.22,-0.22
1.143,-1.35,-0.83,-0.44,-0.32,0.25,-0.19
1.143,-1.35,-0.83,-0.44,-0.34,0.28,-0.15
1.144,-1.46,-0.82,-0.43,-0.34,0.28,-0.15
1.144,-1.50,-0.77,-0.40,-0.34,0.28,-0.15
1.144,-1.50,-0.77,-0.40,-0.35,0.30,-0.12
1.148,-1.50,-0.77,-0.40,-0.36,0.33,-0.08
1.148,-1.41,-0.66,-0.39,-0.36,0.33,-0.08
1.148,-1.41,-0.66,-0.39,-0.36,0.34,-0.05
1.15,-1.25,-0.52,-0.35,-0.36,0.34,-0.05
1.151,-1.25,-0.52,-0.35,-0.37,0.35,-0.03
1.152,-1.25,-0.52,-0.35,-0.37,0.36,-0.00
1.154,-1.01,-0.35,-0.37,-0.37,0.36,-0.00
1.16,-1.01,-0.35,-0.37,-0.37,0.36,0.01
1.16,-0.66,-0.18,-0.38,-0.37,0.36,0.01
1.16,-0.66,-0.18,-0.38,-0.37,0.36,0.02
1.162,-0.66,-0.18,-0.38,-0.38,0.35,0.02
1.162,-0.29,0.03,-0.43,-0.38,0.35,0.02
1.162,-0.29,0.03,-0.43,-0.38,0.35,0.02
1.166,-0.29,0.03,-0.43,-0.39,0.35,0.00
1.167,0.08,0.23,-0.43,-0.39,0.35,0.00
1.168,0.08,0.23,-0.43,-0.39,0.35,-0.02
1.17,0.08,0.23,-0.43,-0.40,0.35,-0.04
1.17,0.40,0.40,-0.47,-0.40,0.35,-0.04
1.171,0.40,0.40,-0.47,-0.41,0.36,-0.07
1.175,0.66,0.53,-0.46,-0.41,0.36,-0.07
1.176,0.66,0.53,-0.46,-0.42,0.37,-0.09
1.179,0.66,0.53,-0.46,-0.43,0.38,-0.12
1.18,0.81,0.61,-0.43,-0.43,0.38,-0.12
1.18,0.81,0.61,-0.43,-0.44,0.39,-0.15
1.184,0.81,0.61,-0.43,-0.44,0.41,-0.18
1.184,0.87,0.64,-0.39,-0.44,0.41,-0.18
1.187,0.93,0.66,-0.37,-0.44,0.41,-0.18
1.188,0.93,0.66,-0.37,-0.45,0.42,-0.20
1.188,0.93,0.66,-0.37,-0.46,0.43,-0.22
1.192,0.93,0.66,-0.37,-0.46,0.45,-0.24
1.193,0.93,0.66,-0.37,-0.47,0.46,-0.25
1.193,0.88,0.64,-0.34,-0.47,0.46,-0.25
1.195,0.76,0.63,-0.27,-0.47,0.46,-0.25
1.196,0.76,0.63,-0.27,-0.47,0.46,-0.26
1.2,0.76,0.63,-0.27,-0.47,0.46,-0.26
1.2,0.51,0.54,-0.17,-0.47,0.46,-0.26
1.201,0.51,0.54,-0.17,-0.47,0.46,-0.26
1.204,0.51,0.54,-0.17,-0.47,0.46,-0.25
1.204,0.26,0.49,-0.09,-0.47,0.46,-0.25
1.21,0.26,0.49,-0.09,-0.46,0.46,-0.24
1.21,-0.00,0.41,-0.01,-0.46,0.46,-0.24
1.21,-0.00,0.41,-0.01,-0.46,0.46,-0.23
1.214,-0.00,0.41,-0.01,-0.45,0.46,-0.22
1.214,-0.24,0.26,0.03,-0.45,0.46,-0.22
1.214,-0.24,0.26,0.03,-0.45,0.47,-0.21
1.215,-0.45,0.13,0.05,-0.45,0.47,-0.21
1.216,-0.45,0.13,0.05,-0.44,0.47,-0.19
1.219,-0.45,0.13,0.05,-0.44,0.48,-0.18
1.241,-0.56,0.04,0.02,-0.44,0.48,-0.18
1.241,-0.56,0.04,0.02,-0.44,0.49,-0.17
1.241,-0.66,-0.05,-0.00,-0.44,0.49,-0.17
1.241,-0.66,-0.05,-0.00,-0.44,0.50,-0.15
1.242,-0.71,-0.11,-0.02,-0.44,0.50,-0.15
1.242,-0.71,-0.11,-0.02,-0.44,0.51,-0.14
1.242,-0.71,-0.11,-0.02,-0.44,0.52,-0.12
1.242,-0.71,-0.11,-0.02,-0.45,0.54,-0.10
1.242,-0.74,-0.13,-0.04,-0.45,0.54,-0.10
1.242,-0.74,-0.13,-0.04,-0.45,0.55,-0.07
1.242,-0.80,-0.14,-0.07,-0.45,0.55,-0.07
1.242,-0.80,-0.14,-0.07,-0.45,0.57,-0.05
1.243,-0.80,-0.14,-0.07,-0.46,0.58,-0.02
1.243,-0.88,-0.13,-0.06,-0.46,0.58,-0.02
1.243,-0.88,-0.13,-0.06,-0.46,0.60,0.01
1.245,-0.87,-0.09,-0.08,-0.46,0.60,0.01
1.245,-0.87,-0.09,-0.08,-0.47,0.61,0.04
1.25,-0.87,-0.09,-0.08,-0.47,0.61,0.07
1.25,-0.82,-0.01,-0.06,-0.47,0.61,0.07
1.25,-0.82,-0.01,-0.06,-0.48,0.62,0.10
1.252,-0.82,-0.01,-0.06,-0.48,0.62,0.13
1.252,-0.70,0.02,-0.08,-0.48,0.62,0.13
1.252,-0.70,0.02,-0.08,-0.49,0.62,0.15
1.256,-0.48,0.08,-0.06,-0.49,0.62,0.15
1.256,-0.48,0.08,-0.06,-0.49,0.61,0.17
1.259,-0.48,0.08,-0.06,-0.49,0.61,0.19
1.26,-0.25,0.10,-0.02,-0.49,0.61,0.19
1.26,-0.25,0.10,-0.02,-0.49,0.60,0.21
1.265,0.06,0.07,0.05,-0.49,0.60,0.21
1.265,0.06,0.07,0.05,-0.49,0.58,0.22
1.268,0.06,0.07,0.05,-0.49,0.57,0.22
1.268,0.32,0.04,0.14,-0.49,0.57,0.22
1.268,0.32,0.04,0.14,-0.49,0.56,0.21
1.272,0.53,-0.04,0.22,-0.49,0.56,0.21
1.272,0.53,-0.04,0.22,-0.49,0.55,0.21
1.272,0.53,-0.04,0.22,-0.49,0.56,0.20
1.276,0.63,-0.15,0.27,-0.49,0.56,0.20
1.276,0.63,-0.15,0.27,-0.49,0.56,0.19
1.28,0.63,-0.15,0.27,-0.49,0.57,0.17
1.28,0.60,-0.20,0.29,-0.49,0.57,0.17
1.281,0.60,-0.20,0.29,-0.50,0.58,0.16
1.284,0.60,-0.20,0.29,-0.50,0.60,0.15
1.284,0.47,-0.29,0.28,-0.50,0.60,0.15
1.288,0.27,-0.34,0.24,-0.50,0.60,0.15
1.288,0.27,-0.34,0.24,-0.51,0.62,0.14
1.289,0.27,-0.34,0.24,-0.52,0.64,0.14
1.292,0.27,-0.34,0.24,-0.53,0.66,0.14
1.293,-0.01,-0.40,0.26,-0.53,0.66,0.14
1.293,-0.01,-0.40,0.26,-0.54,0.67,0.15
1.296,-0.35,-0.46,0.25,-0.54,0.67,0.15
1.297,-0.35,-0.46,0.25,-0.55,0.69,0.16
1.3,-0.35,-0.46,0.25,-0.56,0.70,0.19
1.3,-0.35,-0.46,0.25,-0.57,0.71,0.22
1.301,-0.69,-0.54,0.25,-0.57,0.71,0.22
1.304,-0.96,-0.54,0.31,-0.57,0.71,0.22
1.304,-0.96,-0.54,0.31,-0.57,0.72,0.25
1.308,-0.96,-0.54,0.31,-0.57,0.71,0.29
1.309,-0.96,-0.54,0.31,-0.57,0.71,0.33
1.309,-1.23,-0.55,0.43,-0.57,0.71,0.33
1.312,-1.43,-0.54,0.55,-0.57,0.71,0.33
1.312,-1.43,-0.54,0.55,-0.57,0.69,0.37
1.312,-1.43,-0.54,0.55,-0.56,0.67,0.42
1.316,-1.54,-0.51,0.72,-0.56,0.67,0.42
1.316,-1.54,-0.51,0.72,-0.54,0.65,0.46
1.32,-1.54,-0.51,0.72,-0.52,0.62,0.51
1.32,-1.63,-0.47,0.86,-0.52,0.62,0.51
1.32,-1.63,-0.47,0.86,-0.50,0.59,0.55
1.325,-1.62,-0.45,0.97,-0.50,0.59,0.55
1.326,-1.62,-0.45,0.97,-0.48,0.56,0.59
1.329,-1.62,-0.45,0.97,-0.45,0.52,0.62
1.329,-1.55,-0.42,1.06,-0.45,0.52,0.62
1.329,-1.55,-0.42,1.06,-0.42,0.49,0.66
1.332,-1.43,-0.39,1.08,-0.42,0.49,0.66
1.332,-1.43,-0.39,1.08,-0.39,0.45,0.69
1.332,-1.43,-0.39,1.08,-0.36,0.41,0.71
1.336,-1.17,-0.36,1.02,-0.36,0.41,0.71
1.336,-1.17,-0.36,1.02,-0.34,0.37,0.73
1.339,-1.17,-0.36,1.02,-0.32,0.33,0.74
1.34,-0.88,-0.31,0.89,-0.32,0.33,0.74
1.34,-0.88,-0.31,0.89,-0.30,0.29,0.75
1.344,-0.63,-0.25,0.70,-0.30,0.29,0.75
1.344,-0.63,-0.25,0.70,-0.28,0.26,0.75
1.347,-0.63,-0.25,0.70,-0.27,0.23,0.75
1.347,-0.37,-0.15,0.49,-0.27,0.23,0.75
1.348,-0.37,-0.15,0.49,-0.27,0.20,0.75
1.351,-0.04,-0.06,0.24,-0.27,0.20,0.75
1.351,-0.04,-0.06,0.24,-0.28,0.18,0.74
1.352,-0.04,-0.06,0.24,-0.28,0.15,0.72
1.355,0.36,0.05,-0.00,-0.28,0.15,0.72
1.356,0.36,0.05,-0.00,-0.30,0.13,0.70
1.36,0.64,0.16,-0.24,-0.30,0.13,0.70
1.365,0.64,0.16,-0.24,-0.32,0.11,0.68
1.365,0.64,0.16,-0.24,-0.34,0.09,0.65
1.365,0.91,0.31,-0.42,-0.34,0.09,0.65
1.365,0.91,0.31,-0.42,-0.36,0.08,0.62
1.367,1.09,0.46,-0.55,-0.36,0.08,0.62
1.367,1.09,0.46,-0.55,-0.39,0.06,0.59
1.367,1.09,0.46,-0.55,-0.42,0.05,0.56
1.37,1.09,0.46,-0.55,-0.45,0.04,0.53
1.37,1.27,0.63,-0.64,-0.45,0.04,0.53
1.38,1.27,0.63,-0.64,-0.48,0.02,0.50
1.38,1.42,0.78,-0.64,-0.48,0.02,0.50
1.38,1.42,0.78,-0.64,-0.51,0.00,0.47
1.38,1.56,0.96,-0.64,-0.51,0.00,0.47
1.381,1.56,0.96,-0.64,-0.54,-0.02,0.43
1.382,1.56,0.96,-0.64,-0.56,-0.03,0.39
1.384,1.56,0.96,-0.64,-0.58,-0.05,0.35
1.384,1.74,1.10,-0.60,-0.58,-0.05,0.35
1.388,1.74,1.10,-0.60,-0.61,-0.08,0.30
1.388,1.95,1.23,-0.52,-0.61,-0.08,0.30
1.388,1.95,1.23,-0.52,-0.62,-0.11,0.24
1.392,1.95,1.23,-0.52,-0.63,-0.13,0.19
1.393,2.19,1.37,-0.40,-0.63,-0.13,0.19
1.393,2.19,1.37,-0.40,-0.65,-0.16,0.13
1.396,2.43,1.50,-0.29,-0.65,-0.16,0.13
1.396,2.43,1.50,-0.29,-0.65,-0.19,0.06
1.4,2.58,1.55,-0.18,-0.65,-0.19,0.06
1.4,2.58,1.55,-0.18,-0.65,-0.22,-0.01
1.401,2.58,1.55,-0.18,-0.66,-0.25,-0.08
1.404,2.58,1.55,-0.18,-0.66,-0.28,-0.15
1.405,2.70,1.58,-0.06,-0.66,-0.28,-0.15
1.408,2.70,1.58,-0.06,-0.66,-0.30,-0.22
1.41,2.70,1.58,-0.06,-0.66,-0.32,-0.30
1.41,2.80,1.51,-0.04,-0.66,-0.32,-0.30
1.412,2.80,1.51,-0.04,-0.67,-0.34,-0.37
1.412,2.81,1.48,-0.06,-0.67,-0.34,-0.37
1.412,2.81,1.48,-0.06,-0.68,-0.36,-0.44
1.416,2.72,1.36,-0.08,-0.68,-0.36,-0.44
1.418,2.72,1.36,-0.08,-0.68,-0.37,-0.50
1.42,2.53,1.20,-0.15,-0.68,-0.37,-0.50
1.42,2.53,1.20,-0.15,-0.68,-0.38,-0.56
1.421,2.53,1.20,-0.15,-0.69,-0.38,-0.62
1.424,2.53,1.20,-0.15,-0.70,-0.39,-0.67
1.425,2.14,0.99,-0.16,-0.70,-0.39,-0.67
1.428,1.73,0.83,-0.15,-0.70,-0.39,-0.67
1.428,1.73,0.83,-0.15,-0.71,-0.38,-0.71
1.428,1.73,0.83,-0.15,-0.72,-0.38,-0.74
1.432,1.31,0.68,-0.13,-0.72,-0.38,-0.74
1.433,1.31,0.68,-0.13,-0.73,-0.39,-0.77
1.433,1.31,0.68,-0.13,-0.74,-0.39,-0.80
1.436,0.91,0.60,-0.06,-0.74,-0.39,-0.80
1.436,0.91,0.60,-0.06,-0.75,-0.39,-0.82
1.44,0.61,0.54,0.04,-0.75,-0.39,-0.82
1.44,0.61,0.54,0.04,-0.75,-0.39,-0.83
1.441,0.61,0.54,0.04,-0.75,-0.39,-0.84
1.444,0.39,0.54,0.23,-0.75,-0.39,-0.84
1.445,0.39,0.54,0.23,-0.75,-0.39,-0.86
1.448,0.25,0.62,0.39,-0.75,-0.39,-0.86
1.448,0.25,0.62,0.39,-0.74,-0.38,-0.87
1.448,0.25,0.62,0.39,-0.73,-0.37,-0.88
1.451,0.24,0.67,0.57,-0.73,-0.37,-0.88
1.452,0.24,0.67,0.57,-0.72,-0.35,-0.90
1.452,0.24,0.67,0.57,-0.70,-0.33,-0.92
1.456,0.36,0.69,0.78,-0.70,-0.33,-0.92
1.456,0.36,0.69,0.78,-0.67,-0.30,-0.94
1.461,0.36,0.69,0.78,-0.64,-0.27,-0.97
1.461,0.62,0.73,0.99,-0.64,-0.27,-0.97
1.462,0.62,0.73,0.99,-0.60,-0.23,-1.00
1.464,0.62,0.73,0.99,-0.56,-0.20,-1.03
1.465,0.95,0.73,1.23,-0.56,-0.20,-1.03
1.468,0.95,0.73,1.23,-0.52,-0.15,-1.07
1.468,1.24,0.72,1.40,-0.52,-0.15,-1.07
1.469,1.24,0.72,1.40,-0.47,-0.11,-1.11
1.472,1.24,0.72,1.40,-0.42,-0.06,-1.16
1.472,1.54,0.74,1.47,-0.42,-0.06,-1.16
1.472,1.54,0.74,1.47,-0.37,-0.02,-1.20
1.479,1.73,0.71,1.54,-0.37,-0.02,-1.20
1.48,1.73,0.71,1.54,-0.32,0.02,-1.25
1.48,1.94,0.72,1.50,-0.32,0.02,-1.25
1.481,1.94,0.72,1.50,-0.26,0.06,-1.30
1.481,1.94,0.72,1.50,-0.21,0.09,-1.35
1.483,2.15,0.62,1.36,-0.21,0.09,-1.35
1.484,2.15,0.62,1.36,-0.16,0.12,-1.40
1.487,2.15,0.62,1.36,-0.12,0.14,-1.46
1.488,2.31,0.57,1.18,-0.12,0.14,-1.46
1.488,2.31,0.57,1.18,-0.07,0.16,-1.51
1.492,2.48,0.58,0.88,-0.07,0.16,-1.51
1.493,2.48,0.58,0.88,-0.03,0.17,-1.57
1.493,2.48,0.58,0.88,-0.00,0.17,-1.63
1.495,2.62,0.58,0.54,-0.00,0.17,-1.63
1.496,2.62,0.58,0.54,0.03,0.18,-1.68
1.499,2.62,0.58,0.54,0.05,0.16,-1.74
1.5,2.73,0.63,0.11,0.05,0.16,-1.74
1.5,2.73,0.63,0.11,0.07,0.15,-1.79
1.504,2.73,0.63,0.11,0.08,0.12,-1.85
1.504,2.79,0.65,-0.23,0.08,0.12,-1.85
1.508,2.82,0.63,-0.52,0.08,0.12,-1.85
1.508,2.82,0.63,-0.52,0.09,0.08,-1.90
1.508,2.82,0.63,-0.52,0.09,0.02,-1.95
1.512,2.82,0.63,-0.52,0.10,-0.04,-2.00
1.512,2.83,0.65,-0.72,0.10,-0.04,-2.00
1.513,2.83,0.65,-0.72,0.10,-0.10,-2.04
1.516,2.79,0.55,-0.86,0.10,-0.10,-2.04
1.516,2.79,0.55,-0.86,0.11,-0.17,-2.09
1.52,2.79,0.55,-0.86,0.11,-0.24,-2.13
1.52,2.82,0.44,-0.95,0.11,-0.24,-2.13
1.52,2.82,0.44,-0.95,0.11,-0.31,-2.18
1.524,2.74,0.28,-1.00,0.11,-0.31,-2.18
1.524,2.74,0.28,-1.00,0.10,-0.39,-2.23
1.528,2.74,0.09,-1.11,0.10,-0.39,-2.23
1.544,2.74,0.09,-1.11,0.10,-0.47,-2.28
1.544,2.74,0.09,-1.11,0.09,-0.54,-2.33
1.545,2.65,-0.09,-1.18,0.09,-0.54,-2.33
1.545,2.65,-0.09,-1.18,0.07,-0.62,-2.38
1.545,2.65,-0.09,-1.18,0.05,-0.69,-2.42
1.545,2.51,-0.26,-1.21,0.05,-0.69,-2.42
1.546,2.51,-0.26,-1.21,0.04,-0.76,-2.47
1.546,2.51,-0.26,-1.21,0.01,-0.82,-2.51
1.546,2.30,-0.44,-1.16,0.01,-0.82,-2.51
1.546,2.30,-0.44,-1.16,-0.01,-0.87,-2.55
1.547,2.00,-0.61,-1.09,-0.01,-0.87,-2.55
1.547,2.00,-0.61,-1.09,-0.04,-0.91,-2.59
1.55,2.00,-0.61,-1.09,-0.06,-0.93,-2.63
1.551,1.75,-0.76,-1.04,-0.06,-0.93,-2.63
1.551,1.75,-0.76,-1.04,-0.09,-0.94,-2.66
1.551,1.75,-0.76,-1.04,-0.12,-0.93,-2.68
1.552,1.35,-0.94,-1.00,-0.12,-0.93,-2.68
1.552,1.35,-0.94,-1.00,-0.15,-0.90,-2.70
1.555,1.01,-1.13,-1.01,-0.15,-0.90,-2.70
1.556,1.01,-1.13,-1.01,-0.18,-0.87,-2.73
1.562,1.01,-1.13,-1.01,-0.22,-0.83,-2.75
1.562,1.01,-1.13,-1.01,-0.27,-0.79,-2.77
1.562,0.80,-1.25,-0.99,-0.27,-0.79,-2.77
1.564,0.78,-1.32,-0.96,-0.27,-0.79,-2.77
1.564,0.78,-1.32,-0.96,-0.32,-0.75,-2.79
1.566,0.82,-1.33,-0.90,-0.32,-0.75,-2.79
1.566,0.82,-1.33,-0.90,-0.37,-0.69,-2.82
1.568,0.82,-1.33,-0.90,-0.42,-0.62,-2.85
1.57,0.82,-1.33,-0.90,-0.48,-0.55,-2.89
1.57,0.91,-1.25,-0.79,-0.48,-0.55,-2.89
1.572,0.91,-1.25,-0.79,-0.53,-0.46,-2.94
1.577,0.91,-1.25,-0.79,-0.59,-0.37,-3.00
1.578,1.14,-1.07,-0.66,-0.59,-0.37,-3.00
1.579,1.33,-0.89,-0.47,-0.59,-0.37,-3.00
1.58,1.33,-0.89,-0.47,-0.64,-0.29,-3.06
1.58,1.33,-0.89,-0.47,-0.69,-0.21,-3.12
1.584,1.57,-0.64,-0.36,-0.69,-0.21,-3.12
1.585,1.57,-0.64,-0.36,-0.74,-0.15,-3.19
1.588,1.92,-0.29,-0.22,-0.74,-0.15,-3.19
1.588,1.92,-0.29,-0.22,-0.79,-0.10,-3.26
1.589,1.92,-0.29,-0.22,-0.83,-0.07,-3.34
1.593,2.32,0.20,-0.14,-0.83,-0.07,-3.34
1.594,2.32,0.20,-0.14,-0.87,-0.05,-3.41
1.594,2.32,0.20,-0.14,-0.90,-0.04,-3.49
1.596,2.61,0.69,0.01,-0.90,-0.04,-3.49
1.596,2.61,0.69,0.01,-0.92,-0.04,-3.56
1.6,2.61,0.69,0.01,-0.94,-0.05,-3.64
1.6,2.65,0.93,0.19,-0.94,-0.05,-3.64
1.601,2.65,0.93,0.19,-0.95,-0.07,-3.71
1.604,2.65,0.93,0.19,-0.95,-0.09,-3.77
1.605,2.61,0.89,0.33,-0.95,-0.09,-3.77
1.608,2.61,0.89,0.33,-0.95,-0.13,-3.84
1.608,2.55,0.68,0.50,-0.95,-0.13,-3.84
1.61,2.55,0.68,0.50,-0.95,-0.20,-3.90
1.612,2.59,0.40,0.65,-0.95,-0.20,-3.90
1.612,2.59,0.40,0.65,-0.94,-0.30,-3.97
1.612,2.59,0.40,0.65,-0.93,-0.42,-4.03
1.616,2.69,0.16,0.67,-0.93,-0.42,-4.03
1.616,2.69,0.16,0.67,-0.92,-0.55,-4.09
1.62,2.69,0.16,0.67,-0.92,-0.69,-4.16
1.62,2.83,-0.03,0.57,-0.92,-0.69,-4.16
1.621,2.83,-0.03,0.57,-0.93,-0.81,-4.22
1.624,2.83,-0.03,0.57,-0.94,-0.93,-4.28
1.624,2.74,-0.17,0.15,-0.94,-0.93,-4.28
1.627,2.49,-0.39,-0.40,-0.94,-0.93,-4.28
1.628,2.49,-0.39,-0.40,-0.96,-1.03,-4.34
1.628,2.49,-0.39,-0.40,-0.98,-1.13,-4.40
1.633,2.49,-0.39,-0.40,-1.01,-1.23,-4.46
1.633,2.49,-0.39,-0.40,-1.05,-1.32,-4.52
1.634,2.28,-0.70,-0.76,-1.05,-1.32,-4.52
1.636,2.14,-0.96,-1.25,-1.05,-1.32,-4.52
1.636,2.14,-0.96,-1.25,-1.11,-1.41,-4.57
1.645,1.75,-1.22,-1.63,-1.11,-1.41,-4.57
1.645,1.75,-1.22,-1.63,-1.17,-1.49,-4.62
1.646,1.75,-1.22,-1.63,-1.24,-1.57,-4.66
1.646,1.75,-1.22,-1.63,-1.32,-1.65,-4.69
1.646,1.24,-1.58,-1.86,-1.32,-1.65,-4.69
1.647,1.24,-1.58,-1.86,-1.39,-1.73,-4.73
1.648,0.80,-1.95,-1.89,-1.39,-1.73,-4.73
1.648,0.80,-1.95,-1.89,-1.48,-1.80,-4.75
1.651,0.29,-2.33,-1.84,-1.48,-1.80,-4.75
1.651,0.29,-2.33,-1.84,-1.57,-1.87,-4.77
1.652,0.29,-2.33,-1.84,-1.68,-1.92,-4.79
1.656,-0.28,-2.71,-1.93,-1.68,-1.92,-4.79
1.656,-0.28,-2.71,-1.93,-1.79,-1.96,-4.81
1.662,-0.28,-2.71,-1.93,-1.91,-2.01,-4.82
1.662,-0.64,-2.85,-2.04,-1.91,-2.01,-4.82
1.662,-0.64,-2.85,-2.04,-2.04,-2.06,-4.84
1.666,-0.73,-2.66,-2.23,-2.04,-2.06,-4.84
1.666,-0.73,-2.66,-2.23,-2.18,-2.07,-4.87
1.668,-0.72,-2.77,-2.56,-2.18,-2.07,-4.87
1.668,-0.72,-2.77,-2.56,-2.31,-2.06,-4.89
1.669,-0.72,-2.77,-2.56,-2.43,-2.03,-4.92
1.672,-0.77,-2.79,-2.72,-2.43,-2.03,-4.92
1.672,-0.77,-2.79,-2.72,-2.55,-2.00,-4.96
1.673,-0.77,-2.79,-2.72,-2.67,-1.97,-4.99
1.685,-0.73,-2.64,-2.77,-2.67,-1.97,-4.99
1.686,-0.73,-2.64,-2.77,-2.77,-1.94,-5.00
1.687,-0.73,-2.64,-2.77,-2.87,-1.90,-4.99
1.687,-1.16,-2.25,-2.74,-2.87,-1.90,-4.99
1.702,-1.16,-2.25,-2.74,-2.95,-1.84,-4.95
1.703,-2.08,-1.57,-2.90,-2.95,-1.84,-4.95
1.703,-2.08,-1.57,-2.90,-3.02,-1.77,-4.89
1.703,-3.02,-0.65,-3.09,-3.02,-1.77,-4.89
1.703,-3.02,-0.65,-3.09,-3.08,-1.68,-4.80
1.703,-3.02,-0.65,-3.09,-3.13,-1.59,-4.69
1.704,-3.80,0.25,-3.06,-3.13,-1.59,-4.69
1.704,-3.80,0.25,-3.06,-3.15,-1.50,-4.56
1.704,-3.80,0.25,-3.06,-3.16,-1.41,-4.43
1.704,-4.41,1.30,-2.78,-3.16,-1.41,-4.43
1.705,-4.41,1.30,-2.78,-3.16,-1.32,-4.29
1.705,-4.41,1.30,-2.78,-3.14,-1.23,-4.15
1.705,-4.33,2.28,-2.38,-3.14,-1.23,-4.15
1.705,-4.33,2.28,-2.38,-3.11,-1.11,-4.02
1.705,-4.15,2.93,-2.28,-3.11,-1.11,-4.02
1.706,-4.15,2.93,-2.28,-3.08,-0.99,-3.89
1.707,-4.15,2.93,-2.28,-3.03,-0.85,-3.76
1.708,-4.15,2.93,-2.28,-2.98,-0.69,-3.63
1.708,-3.90,3.32,-2.22,-2.98,-0.69,-3.63
1.711,-3.90,3.32,-2.22,-2.92,-0.53,-3.51
1.712,-3.70,3.60,-2.13,-2.92,-0.53,-3.51
1.712,-3.70,3.60,-2.13,-2.86,-0.37,-3.39
1.716,-3.33,3.88,-2.00,-2.86,-0.37,-3.39
1.716,-3.33,3.88,-2.00,-2.79,-0.21,-3.28
1.72,-3.33,3.88,-2.00,-2.72,-0.05,-3.18
1.72,-2.92,4.19,-1.76,-2.72,-0.05,-3.18
1.72,-2.92,4.19,-1.76,-2.64,0.11,-3.08
1.724,-2.92,4.19,-1.76,-2.55,0.25,-2.98
1.724,-2.76,4.19,-1.51,-2.55,0.25,-2.98
1.728,-2.55,3.98,-1.07,-2.55,0.25,-2.98
1.728,-2.55,3.98,-1.07,-2.47,0.35,-2.89
1.73,-2.55,3.98,-1.07,-2.38,0.40,-2.81
1.732,-2.55,3.98,-1.07,-2.29,0.42,-2.75
1.732,-2.55,3.98,-1.07,-2.21,0.39,-2.70
1.733,-1.85,4.05,-0.33,-2.21,0.39,-2.70
1.736,-1.28,4.07,0.38,-2.21,0.39,-2.70
1.737,-1.28,4.07,0.38,-2.13,0.31,-2.66
1.74,-1.28,4.07,0.38,-2.06,0.21,-2.62
1.74,-1.28,4.07,0.38,-2.01,0.08,-2.58
1.74,-1.02,4.03,0.67,-2.01,0.08,-2.58
1.744,-1.24,3.89,0.71,-2.01,0.08,-2.58
1.745,-1.24,3.89,0.71,-1.97,-0.06,-2.53
1.748,-1.60,3.94,0.72,-1.97,-0.06,-2.53
1.748,-1.60,3.94,0.72,-1.93,-0.20,-2.49
1.748,-1.60,3.94,0.72,-1.89,-0.32,-2.44
1.752,-1.91,4.06,0.81,-1.89,-0.32,-2.44
1.752,-1.91,4.06,0.81,-1.86,-0.42,-2.40
1.752,-1.91,4.06,0.81,-1.82,-0.51,-2.35
1.756,-1.97,4.23,0.93,-1.82,-0.51,-2.35
1.756,-1.97,4.23,0.93,-1.78,-0.58,-2.31
1.76,-1.97,4.23,0.93,-1.75,-0.65,-2.26
1.76,-1.97,4.23,0.93,-1.72,-0.73,-2.21
1.762,-2.05,4.23,1.01,-1.72,-0.73,-2.21
1.764,-2.05,4.40,0.69,-1.72,-0.73,-2.21
1.764,-2.05,4.40,0.69,-1.71,-0.80,-2.17
1.766,-2.05,4.40,0.69,-1.70,-0.83,-2.15
1.767,-1.69,5.10,0.35,-1.70,-0.83,-2.15
1.768,-1.69,5.10,0.35,-1.70,-0.84,-2.14
1.77,-1.52,5.55,-0.27,-1.70,-0.84,-2.14
1.771,-1.52,5.55,-0.27,-1.71,-0.84,-2.12
1.772,-1.52,5.55,-0.27,-1.73,-0.82,-2.11
1.776,-1.45,6.05,-0.94,-1.73,-0.82,-2.11
1.777,-1.45,6.05,-0.94,-1.73,-0.78,-2.11
1.779,-1.42,6.29,-0.99,-1.73,-0.78,-2.11
1.78,-1.42,6.29,-0.99,-1.74,-0.72,-2.10
1.78,-1.42,6.29,-0.99,-1.75,-0.66,-2.09
1.784,-1.42,6.29,-0.99,-1.75,-0.62,-2.07
1.785,-1.57,6.31,-1.07,-1.75,-0.62,-2.07
1.787,-2.07,5.96,-1.09,-1.75,-0.62,-2.07
1.788,-2.07,5.96,-1.09,-1.75,-0.59,-2.03
1.788,-2.07,5.96,-1.09,-1.74,-0.57,-1.99
1.792,-2.07,5.96,-1.09,-1.74,-0.54,-1.95
1.792,-2.29,5.65,-0.97,-1.74,-0.54,-1.95
1.793,-2.29,5.65,-0.97,-1.73,-0.49,-1.91
1.797,-2.34,5.56,-1.22,-1.73,-0.49,-1.91
1.798,-2.34,5.56,-1.22,-1.73,-0.44,-1.87
1.8,-2.45,5.14,-1.43,-1.73,-0.44,-1.87
1.8,-2.45,5.14,-1.43,-1.73,-0.39,-1.83
1.801,-2.45,5.14,-1.43,-1.71,-0.36,-1.80
1.804,-2.45,5.14,-1.43,-1.69,-0.35,-1.77
1.804,-2.28,4.44,-0.97,-1.69,-0.35,-1.77
1.808,-1.92,3.66,-0.67,-1.69,-0.35,-1.77
1.808,-1.92,3.66,-0.67,-1.66,-0.35,-1.75
1.809,-1.92,3.66,-0.67,-1.64,-0.38,-1.75
1.812,-1.32,3.44,-0.62,-1.64,-0.38,-1.75
1.813,-1.32,3.44,-0.62,-1.61,-0.41,-1.77
1.813,-1.32,3.44,-0.62,-1.57,-0.43,-1.80
1.816,-0.65,3.33,-0.09,-1.57,-0.43,-1.80
1.816,-0.65,3.33,-0.09,-1.52,-0.42,-1.85
1.819,0.08,1.34,0.52,-1.52,-0.42,-1.85
1.82,0.08,1.34,0.52,-1.47,-0.44,-1.94
1.82,0.08,1.34,0.52,-1.41,-0.50,-2.05
1.823,1.64,-2.30,0.47,-1.41,-0.50,-2.05
1.824,1.64,-2.30,0.47,-1.35,-0.60,-2.19
1.828,3.49,-7.32,0.56,-1.35,-0.60,-2.19
1.829,3.49,-7.32,0.56,-1.23,-0.74,-2.34
1.83,3.49,-7.32,0.56,-1.07,-0.84,-2.50
1.831,3.49,-7.32,0.56,-0.86,-0.90,-2.70
1.832,5.43,-12.83,1.94,-0.86,-0.90,-2.70
1.833,5.43,-12.83,1.94,-0.63,-0.93,-2.94
1.855,7.99,-18.69,2.52,-0.63,-0.93,-2.94
1.856,7.99,-18.69,2.52,-0.35,-0.94,-3.23
1.856,7.99,-18.69,2.52,-0.04,-0.92,-3.53
1.856,11.23,-24.53,3.02,-0.04,-0.92,-3.53
1.857,11.23,-24.53,3.02,0.29,-0.91,-3.85
1.857,11.23,-24.53,3.02,0.64,-0.89,-4.15
1.857,13.14,-28.71,3.58,0.64,-0.89,-4.15
1.858,13.44,-30.74,4.38,0.64,-0.89,-4.15
1.858,13.44,-30.74,4.38,1.00,-0.88,-4.42
1.859,13.44,-30.74,4.38,1.35,-0.89,-4.66
1.859,12.71,-31.41,4.40,1.35,-0.89,-4.66
1.859,12.71,-31.41,4.40,1.68,-0.90,-4.90
1.859,12.71,-31.41,4.40,1.95,-0.92,-5.16
1.859,11.33,-29.05,3.21,1.95,-0.92,-5.16
1.86,11.33,-29.05,3.21,2.15,-0.90,-5.40
1.86,9.23,-24.62,1.23,2.15,-0.90,-5.40
1.86,9.23,-24.62,1.23,2.29,-0.87,-5.58
1.86,9.23,-24.62,1.23,2.38,-0.89,-5.71
1.864,9.23,-24.62,1.23,2.42,-0.95,-5.76
1.865,6.68,-20.31,-0.16,2.42,-0.95,-5.76
1.867,3.90,-16.38,-0.72,2.42,-0.95,-5.76
1.867,3.90,-16.38,-0.72,2.43,-1.04,-5.75
1.867,3.90,-16.38,-0.72,2.44,-1.12,-5.69
1.872,3.90,-16.38,-0.72,2.44,-1.19,-5.59
1.872,1.59,-13.28,-0.80,2.44,-1.19,-5.59
1.872,1.59,-13.28,-0.80,2.42,-1.27,-5.45
1.876,-0.67,-10.71,-0.98,2.42,-1.27,-5.45
1.876,-0.67,-10.71,-0.98,2.39,-1.34,-5.27
1.88,-0.67,-10.71,-0.98,2.35,-1.39,-5.06
1.88,-0.67,-10.71,-0.98,2.30,-1.44,-4.83
1.881,-2.71,-8.22,-1.14,2.30,-1.44,-4.83
1.884,-2.71,-8.22,-1.14,2.25,-1.47,-4.59
1.884,-4.16,-6.03,-1.37,2.25,-1.47,-4.59
1.888,-5.25,-4.26,-1.40,2.25,-1.47,-4.59
1.888,-5.25,-4.26,-1.40,2.20,-1.49,-4.33
1.888,-5.25,-4.26,-1.40,2.14,-1.50,-4.05
1.892,-5.25,-4.26,-1.40,2.08,-1.51,-3.77
1.892,-6.18,-2.62,-1.49,2.08,-1.51,-3.77
1.892,-6.18,-2.62,-1.49,2.02,-1.50,-3.49
1.897,-6.18,-2.62,-1.49,1.96,-1.48,-3.19
1.897,-6.76,-1.24,-1.65,1.96,-1.48,-3.19
1.9,-6.76,-1.24,-1.65,1.89,-1.46,-2.89
1.9,-6.76,-1.24,-1.65,1.82,-1.43,-2.59
1.9,-7.36,-0.02,-1.76,1.82,-1.43,-2.59
1.904,-7.69,0.87,-1.81,1.82,-1.43,-2.59
1.904,-7.69,0.87,-1.81,1.75,-1.41,-2.29
1.908,-7.69,0.87,-1.81,1.66,-1.39,-1.97
1.908,-8.02,1.64,-1.91,1.66,-1.39,-1.97
1.908,-8.02,1.64,-1.91,1.57,-1.38,-1.65
1.912,-8.22,2.34,-2.09,1.57,-1.38,-1.65
1.912,-8.22,2.34,-2.09,1.46,-1.38,-1.32
1.912,-8.22,2.34,-2.09,1.35,-1.38,-0.98
1.916,-8.42,3.02,-2.31,1.35,-1.38,-0.98
1.916,-8.42,3.02,-2.31,1.21,-1.41,-0.63
1.92,-8.42,3.02,-2.31,1.05,-1.48,-0.28
1.92,-8.50,3.64,-2.58,1.05,-1.48,-0.28
1.92,-8.50,3.64,-2.58,0.87,-1.57,0.07
1.924,-8.33,4.23,-2.99,0.87,-1.57,0.07
1.924,-8.33,4.23,-2.99,0.65,-1.72,0.41
1.928,-7.91,4.78,-3.42,0.65,-1.72,0.41
1.929,-7.91,4.78,-3.42,0.41,-1.90,0.74
1.929,-7.91,4.78,-3.42,0.15,-2.11,1.06
1.932,-7.16,5.20,-3.58,0.15,-2.11,1.06
1.933,-7.16,5.20,-3.58,-0.11,-2.34,1.36
1.933,-7.16,5.20,-3.58,-0.36,-2.57,1.63
1.936,-6.14,5.32,-3.39,-0.36,-2.57,1.63
1.937,-6.14,5.32,-3.39,-0.59,-2.79,1.85
1.941,-4.73,5.14,-2.91,-0.59,-2.79,1.85
1.941,-4.73,5.14,-2.91,-0.80,-2.99,2.04
1.941,-4.73,5.14,-2.91,-0.99,-3.16,2.18
1.947,-3.08,4.59,-2.33,-0.99,-3.16,2.18
1.948,-3.08,4.59,-2.33,-1.15,-3.31,2.28
1.948,-1.35,3.83,-1.74,-1.15,-3.31,2.28
1.949,-1.35,3.83,-1.74,-1.29,-3.44,2.35
1.949,-1.35,3.83,-1.74,-1.40,-3.53,2.37
1.951,-1.35,3.83,-1.74,-1.50,-3.60,2.36
1.952,-1.35,3.83,-1.74,-1.58,-3.65,2.32
1.952,0.43,2.94,-1.23,-1.58,-3.65,2.32
1.956,2.06,1.99,-0.71,-1.58,-3.65,2.32
1.956,2.06,1.99,-0.71,-1.64,-3.66,2.25
1.96,3.63,1.04,-0.30,-1.64,-3.66,2.25
1.961,3.63,1.04,-0.30,-1.68,-3.66,2.15
1.961,3.63,1.04,-0.30,-1.71,-3.63,2.03
1.964,5.01,0.17,0.01,-1.71,-3.63,2.03
1.964,5.01,0.17,0.01,-1.72,-3.57,1.89
1.966,6.20,-0.64,0.25,-1.72,-3.57,1.89
1.967,6.20,-0.64,0.25,-1.73,-3.49,1.74
1.968,6.20,-0.64,0.25,-1.72,-3.39,1.56
1.97,7.22,-1.26,0.39,-1.72,-3.39,1.56
1.97,7.22,-1.26,0.39,-1.71,-3.27,1.38
1.972,7.22,-1.26,0.39,-1.69,-3.13,1.18
1.975,7.97,-1.75,0.40,-1.69,-3.13,1.18
1.979,8.33,-2.03,0.46,-1.69,-3.13,1.18
1.98,8.33,-2.03,0.46,-1.66,-2.96,0.98
1.98,8.33,-2.03,0.46,-1.64,-2.78,0.79
1.982,8.33,-2.03,0.46,-1.60,-2.58,0.59
1.982,8.33,-2.03,0.46,-1.56,-2.37,0.41
1.983,8.23,-1.99,0.59,-1.56,-2.37,0.41
1.986,8.23,-1.99,0.59,-1.51,-2.14,0.25
1.986,7.65,-1.72,0.77,-1.51,-2.14,0.25
2.005,7.65,-1.72,0.77,-1.46,-1.91,0.11
2.005,6.63,-1.17,0.95,-1.46,-1.91,0.11
2.006,6.63,-1.17,0.95,-1.40,-1.66,-0.01
2.006,6.63,-1.17,0.95,-1.34,-1.40,-0.10
2.006,5.39,-0.47,1.12,-1.34,-1.40,-0.10
2.007,5.39,-0.47,1.12,-1.28,-1.14,-0.17
2.007,5.39,-0.47,1.12,-1.22,-0.89,-0.21
2.007,4.16,0.20,1.32,-1.22,-0.89,-0.21
2.008,4.16,0.20,1.32,-1.15,-0.63,-0.25
2.008,4.16,0.20,1.32,-1.08,-0.38,-0.26
2.008,3.15,0.80,1.50,-1.08,-0.38,-0.26
2.008,3.15,0.80,1.50,-1.01,-0.14,-0.26
2.009,2.28,1.27,1.67,-1.01,-0.14,-0.26
2.011,2.28,1.27,1.67,-0.94,0.09,-0.25
2.011,2.28,1.27,1.67,-0.87,0.31,-0.23
2.012,1.61,1.65,1.76,-0.87,0.31,-0.23
2.013,1.61,1.65,1.76,-0.80,0.52,-0.21
2.014,1.10,1.96,1.83,-0.80,0.52,-0.21
2.017,1.10,1.96,1.83,-0.73,0.72,-0.17
2.018,1.10,1.96,1.83,-0.67,0.91,-0.14
2.018,0.72,2.17,1.87,-0.67,0.91,-0.14
2.021,0.72,2.17,1.87,-0.61,1.08,-0.11
2.022,0.72,2.17,1.87,-0.56,1.25,-0.07
2.023,0.47,2.27,1.90,-0.56,1.25,-0.07
2.026,0.38,2.28,1.87,-0.56,1.25,-0.07
2.026,0.38,2.28,1.87,-0.50,1.39,-0.04
2.03,0.38,2.28,1.87,-0.45,1.52,-0.01
2.03,0.43,2.21,1.81,-0.45,1.52,-0.01
2.03,0.43,2.21,1.81,-0.41,1.64,0.02
2.034,0.43,2.21,1.81,-0.38,1.74,0.04
2.034,0.58,2.08,1.74,-0.38,1.74,0.04
2.038,0.58,2.08,1.74,-0.35,1.83,0.05
2.038,0.58,2.08,1.74,-0.32,1.91,0.05
2.038,0.77,1.80,1.62,-0.32,1.91,0.05
2.042,0.77,1.80,1.62,-0.30,1.97,0.05
2.042,0.77,1.80,1.62,-0.29,2.03,0.04
2.042,0.98,1.52,1.52,-0.29,2.03,0.04
2.049,0.98,1.52,1.52,-0.28,2.07,0.04
2.049,1.09,1.21,1.42,-0.28,2.07,0.04
2.049,1.09,1.21,1.42,-0.28,2.11,0.03
2.052,1.09,1.21,1.42,-0.27,2.13,0.02
2.052,1.08,0.93,1.34,-0.27,2.13,0.02
2.054,1.08,0.93,1.34,-0.28,2.15,0.02
2.054,1.00,0.74,1.24,-0.28,2.15,0.02
2.057,1.00,0.74,1.24,-0.29,2.16,0.01
2.058,1.00,0.74,1.24,-0.29,2.17,0.01
2.059,0.92,0.57,1.15,-0.29,2.17,0.01
2.063,0.71,0.51,1.05,-0.29,2.17,0.01
2.063,0.71,0.51,1.05,-0.30,2.17,0.01
2.063,0.71,0.51,1.05,-0.31,2.17,0.01
2.066,0.44,0.48,0.99,-0.31,2.17,0.01
2.066,0.44,0.48,0.99,-0.32,2.17,0.02
2.07,0.44,0.48,0.99,-0.34,2.17,0.02
2.07,0.35,0.34,0.93,-0.34,2.17,0.02
2.07,0.35,0.34,0.93,-0.35,2.16,0.03
2.074,0.35,0.34,0.93,-0.36,2.15,0.03
2.074,0.27,0.23,0.87,-0.36,2.15,0.03
2.078,0.27,0.23,0.87,-0.38,2.14,0.03
2.08,0.27,0.10,0.83,-0.38,2.14,0.03
2.08,0.27,0.10,0.83,-0.39,2.14,0.03
2.082,0.27,0.10,0.83,-0.40,2.13,0.03
2.083,0.25,-0.04,0.81,-0.40,2.13,0.03
2.083,0.25,-0.04,0.81,-0.41,2.13,0.03
2.087,0.25,-0.04,0.81,-0.41,2.13,0.02
2.087,0.20,-0.14,0.81,-0.41,2.13,0.02
2.09,0.20,-0.14,0.81,-0.42,2.12,0.01
2.09,0.16,-0.21,0.79,-0.42,2.12,0.01
2.09,0.16,-0.21,0.79,-0.42,2.12,0.01
2.094,0.16,-0.21,0.79,-0.42,2.12,-0.00
2.094,0.13,-0.30,0.80,-0.42,2.12,-0.00
2.097,0.13,-0.30,0.80,-0.42,2.12,-0.01
2.098,0.13,-0.30,0.80,-0.42,2.12,-0.02
2.098,0.07,-0.38,0.79,-0.42,2.12,-0.02
2.102,0.07,-0.38,0.79,-0.41,2.13,-0.02
2.102,-0.01,-0.48,0.78,-0.41,2.13,-0.02
2.102,-0.01,-0.48,0.78,-0.40,2.13,-0.02
2.106,-0.01,-0.48,0.78,-0.39,2.14,-0.03
2.107,-0.14,-0.49,0.75,-0.39,2.14,-0.03
2.11,-0.14,-0.49,0.75,-0.39,2.15,-0.02
2.11,-0.14,-0.49,0.75,-0.38,2.16,-0.01
2.11,-0.40,-0.44,0.69,-0.38,2.16,-0.01
2.114,-0.40,-0.44,0.69,-0.36,2.16,0.00
2.115,-0.55,-0.45,0.64,-0.36,2.16,0.00
2.117,-0.55,-0.45,0.64,-0.36,2.17,0.01
2.118,-0.55,-0.45,0.64,-0.35,2.18,0.03
2.118,-0.73,-0.40,0.61,-0.35,2.18,0.03
2.122,-0.73,-0.40,0.61,-0.33,2.19,0.05
2.122,-0.73,-0.40,0.61,-0.32,2.21,0.06
2.122,-0.80,-0.38,0.56,-0.32,2.21,0.06
2.126,-0.80,-0.38,0.56,-0.31,2.22,0.07
2.127,-0.82,-0.38,0.50,-0.31,2.22,0.07
2.13,-0.82,-0.38,0.50,-0.29,2.23,0.08
2.131,-0.82,-0.38,0.50,-0.28,2.25,0.09
2.131,-0.79,-0.36,0.44,-0.28,2.25,0.09
2.134,-0.79,-0.36,0.44,-0.27,2.26,0.10
2.134,-0.73,-0.40,0.36,-0.27,2.26,0.10
2.138,-0.73,-0.40,0.36,-0.26,2.28,0.11
2.138,-0.73,-0.40,0.36,-0.25,2.29,0.11
2.138,-0.69,-0.42,0.26,-0.25,2.29,0.11
2.142,-0.69,-0.42,0.26,-0.24,2.30,0.11
2.16,-0.67,-0.41,0.17,-0.24,2.30,0.11
2.16,-0.67,-0.41,0.17,-0.23,2.32,0.12
2.161,-0.67,-0.41,0.17,-0.23,2.33,0.12
2.161,-0.67,-0.36,0.11,-0.23,2.33,0.12
2.161,-0.67,-0.36,0.11,-0.22,2.34,0.12
2.161,-0.67,-0.36,0.11,-0.21,2.34,0.12
2.161,-0.69,-0.37,0.05,-0.21,2.34,0.12
2.162,-0.69,-0.37,0.05,-0.21,2.34,0.13
2.162,-0.72,-0.36,0.03,-0.21,2.34,0.13
2.162,-0.72,-0.36,0.03,-0.20,2.34,0.13
2.162,-0.72,-0.36,0.03,-0.20,2.33,0.14
2.162,-0.77,-0.37,0.03,-0.20,2.33,0.14
2.163,-0.77,-0.37,0.03,-0.20,2.32,0.14
2.164,-0.75,-0.36,0.01,-0.20,2.32,0.14
2.164,-0.75,-0.36,0.01,-0.19,2.31,0.15
2.166,-0.75,-0.36,0.01,-0.19,2.29,0.15
2.166,-0.73,-0.39,-0.03,-0.19,2.29,0.15
2.167,-0.73,-0.39,-0.03,-0.19,2.27,0.16
2.169,-0.67,-0.44,-0.07,-0.19,2.27,0.16
2.17,-0.67,-0.44,-0.07,-0.19,2.24,0.16
2.172,-0.67,-0.44,-0.07,-0.19,2.21,0.17
2.174,-0.64,-0.45,-0.10,-0.19,2.21,0.17
2.177,-0.64,-0.45,-0.10,-0.19,2.18,0.17
2.179,-0.57,-0.49,-0.14,-0.19,2.18,0.17
2.18,-0.57,-0.49,-0.14,-0.19,2.15,0.18
2.182,-0.57,-0.49,-0.14,-0.19,2.12,0.18
2.183,-0.51,-0.46,-0.18,-0.19,2.12,0.18
2.184,-0.51,-0.46,-0.18,-0.20,2.08,0.19
2.186,-0.45,-0.48,-0.20,-0.20,2.08,0.19
2.187,-0.45,-0.48,-0.20,-0.20,2.05,0.19
2.19,-0.39,-0.44,-0.24,-0.20,2.05,0.19
2.191,-0.39,-0.44,-0.24,-0.21,2.01,0.20
2.191,-0.39,-0.44,-0.24,-0.21,1.97,0.20
2.193,-0.39,-0.44,-0.24,-0.22,1.93,0.20
2.194,-0.35,-0.44,-0.29,-0.22,1.93,0.20
2.2,-0.30,-0.40,-0.32,-0.22,1.93,0.20
2.201,-0.30,-0.40,-0.32,-0.22,1.89,0.20
2.202,-0.30,-0.40,-0.32,-0.22,1.85,0.20
2.205,-0.30,-0.36,-0.34,-0.22,1.85,0.20
2.205,-0.30,-0.36,-0.34,-0.23,1.80,0.20
2.206,-0.30,-0.36,-0.34,-0.23,1.77,0.20
2.206,-0.27,-0.30,-0.32,-0.23,1.77,0.20
2.206,-0.27,-0.30,-0.32,-0.24,1.72,0.20
2.209,-0.27,-0.30,-0.32,-0.24,1.68,0.20
2.21,-0.27,-0.30,-0.32,-0.24,1.63,0.21
2.211,-0.25,-0.25,-0.34,-0.24,1.63,0.21
2.213,-0.25,-0.25,-0.34,-0.24,1.59,0.21
2.214,-0.34,-0.18,-0.30,-0.24,1.59,0.21
2.218,-0.34,-0.18,-0.30,-0.25,1.54,0.21
2.218,-0.34,-0.18,-0.30,-0.25,1.50,0.22
2.219,-0.41,-0.07,-0.29,-0.25,1.50,0.22
2.222,-0.41,-0.07,-0.29,-0.25,1.45,0.22
2.222,-0.41,-0.07,-0.29,-0.25,1.41,0.22
2.222,-0.40,-0.10,-0.26,-0.25,1.41,0.22
2.226,-0.39,-0.08,-0.25,-0.25,1.41,0.22
2.227,-0.39,-0.08,-0.25,-0.24,1.36,0.23
2.23,-0.39,-0.08,-0.25,-0.24,1.32,0.23
2.231,-0.39,-0.08,-0.25,-0.24,1.27,0.24
2.231,-0.41,-0.03,-0.22,-0.24,1.27,0.24
2.234,-0.41,-0.03,-0.22,-0.24,1.22,0.24
2.234,-0.38,-0.01,-0.22,-0.24,1.22,0.24
2.238,-0.38,-0.01,-0.22,-0.23,1.18,0.25
2.238,-0.33,-0.06,-0.23,-0.23,1.18,0.25
2.238,-0.33,-0.06,-0.23,-0.23,1.13,0.25
2.242,-0.33,-0.06,-0.23,-0.22,1.08,0.25
2.242,-0.27,-0.09,-0.24,-0.22,1.08,0.25
2.243,-0.27,-0.09,-0.24,-0.22,1.03,0.26
2.247,-0.27,-0.09,-0.24,-0.22,0.99,0.26
2.248,-0.20,-0.12,-0.26,-0.22,0.99,0.26
2.25,-0.12,-0.13,-0.27,-0.22,0.99,0.26
2.251,-0.12,-0.13,-0.27,-0.21,0.94,0.26
2.251,-0.12,-0.13,-0.27,-0.21,0.89,0.26
2.254,-0.12,-0.13,-0.27,-0.21,0.85,0.26
2.254,-0.06,-0.13,-0.27,-0.21,0.85,0.26
2.258,-0.06,-0.13,-0.27,-0.20,0.80,0.25
2.258,-0.06,-0.13,-0.27,-0.20,0.76,0.25
2.258,-0.00,-0.13,-0.29,-0.20,0.76,0.25
2.262,-0.00,-0.13,-0.29,-0.20,0.71,0.25
2.262,-0.00,-0.13,-0.29,-0.19,0.67,0.25
2.262,0.04,-0.07,-0.30,-0.19,0.67,0.25
2.266,0.04,-0.07,-0.30,-0.19,0.63,0.24
2.267,0.04,-0.08,-0.31,-0.19,0.63,0.24
2.27,0.04,-0.08,-0.31,-0.19,0.60,0.24
2.27,0.07,0.00,-0.33,-0.19,0.60,0.24
2.27,0.07,0.00,-0.33,-0.19,0.56,0.24
2.274,0.07,0.00,-0.33,-0.18,0.53,0.23
2.274,0.05,0.03,-0.35,-0.18,0.53,0.23
2.278,0.05,0.03,-0.35,-0.18,0.49,0.23
2.278,0.05,0.03,-0.35,-0.18,0.46,0.23
2.279,0.08,0.07,-0.36,-0.18,0.46,0.23
2.282,0.08,0.07,-0.36,-0.18,0.44,0.23
2.283,0.11,0.08,-0.37,-0.18,0.44,0.23
2.283,0.11,0.08,-0.37,-0.17,0.41,0.22
2.287,0.20,0.03,-0.41,-0.17,0.41,0.22
2.287,0.20,0.03,-0.41,-0.17,0.38,0.22
2.29,0.20,0.03,-0.41,-0.17,0.36,0.21
2.29,0.20,0.03,-0.41,-0.16,0.33,0.21
2.291,0.23,0.00,-0.41,-0.16,0.33,0.21
2.294,0.23,0.00,-0.41,-0.16,0.30,0.20
2.294,0.28,-0.01,-0.38,-0.16,0.30,0.20
2.315,0.28,-0.01,-0.38,-0.16,0.28,0.20
2.315,0.34,0.01,-0.39,-0.16,0.28,0.20
2.315,0.34,0.01,-0.39,-0.15,0.25,0.19
2.316,0.34,0.01,-0.39,-0.15,0.23,0.19
2.316,0.34,0.01,-0.39,-0.15,0.20,0.18
2.316,0.38,0.05,-0.35,-0.15,0.20,0.18
2.316,0.38,0.05,-0.35,-0.15,0.17,0.18
2.317,0.43,0.05,-0.33,-0.15,0.17,0.18
2.317,0.43,0.05,-0.33,-0.14,0.15,0.17
2.317,0.43,0.05,-0.33,-0.14,0.12,0.16
2.317,0.46,0.03,-0.37,-0.14,0.12,0.16
2.317,0.46,0.03,-0.37,-0.13,0.10,0.15
2.317,0.48,0.06,-0.37,-0.13,0.10,0.15
2.317,0.48,0.06,-0.37,-0.13,0.08,0.15
2.32,0.53,0.07,-0.38,-0.13,0.08,0.15
2.32,0.53,0.07,-0.38,-0.13,0.05,0.14
2.323,0.53,0.07,-0.38,-0.13,0.04,0.13
2.324,0.52,0.08,-0.39,-0.13,0.04,0.13
2.324,0.52,0.08,-0.39,-0.13,0.02,0.13
2.327,0.52,0.13,-0.42,-0.13,0.02,0.13
2.327,0.52,0.13,-0.42,-0.13,0.00,0.12
2.327,0.52,0.13,-0.42,-0.13,-0.02,0.12
2.331,0.52,0.16,-0.42,-0.13,-0.02,0.12
2.332,0.52,0.16,-0.42,-0.13,-0.03,0.11
2.332,0.52,0.16,-0.42,-0.12,-0.05,0.11
2.335,0.53,0.17,-0.44,-0.12,-0.05,0.11
2.335,0.53,0.17,-0.44,-0.12,-0.06,0.10
2.34,0.52,0.21,-0.45,-0.12,-0.06,0.10
2.34,0.52,0.21,-0.45,-0.12,-0.08,0.10
2.34,0.52,0.21,-0.45,-0.12,-0.09,0.09
2.344,0.56,0.24,-0.46,-0.12,-0.09,0.09
2.344,0.56,0.24,-0.46,-0.13,-0.10,0.09
2.349,0.55,0.25,-0.46,-0.13,-0.10,0.09
2.35,0.55,0.25,-0.46,-0.13,-0.12,0.08
2.35,0.55,0.25,-0.46,-0.13,-0.13,0.08
2.351,0.56,0.27,-0.46,-0.13,-0.13,0.08
2.351,0.56,0.27,-0.46,-0.13,-0.15,0.07
2.353,0.56,0.27,-0.46,-0.13,-0.16,0.07
2.355,0.57,0.28,-0.46,-0.13,-0.16,0.07
2.356,0.57,0.28,-0.46,-0.14,-0.17,0.07
2.359,0.60,0.28,-0.45,-0.14,-0.17,0.07
2.36,0.60,0.28,-0.45,-0.14,-0.19,0.06
2.361,0.60,0.28,-0.45,-0.14,-0.20,0.05
2.365,0.60,0.28,-0.45,-0.15,-0.21,0.05
2.365,0.60,0.30,-0.44,-0.15,-0.21,0.05
2.365,0.64,0.26,-0.43,-0.15,-0.21,0.05
2.366,0.64,0.26,-0.43,-0.15,-0.23,0.04
2.367,0.64,0.26,-0.43,-0.15,-0.24,0.03
2.37,0.66,0.25,-0.41,-0.15,-0.24,0.03
2.37,0.66,0.25,-0.41,-0.16,-0.25,0.02
2.373,0.66,0.25,-0.41,-0.16,-0.27,0.01
2.374,0.66,0.22,-0.39,-0.16,-0.27,0.01
2.378,0.66,0.22,-0.39,-0.16,-0.28,0.00
2.378,0.66,0.22,-0.39,-0.16,-0.30,-0.01
2.378,0.69,0.21,-0.36,-0.16,-0.30,-0.01
2.382,0.70,0.20,-0.35,-0.16,-0.30,-0.01
2.383,0.70,0.20,-0.35,-0.17,-0.31,-0.02
2.383,0.70,0.20,-0.35,-0.18,-0.32,-0.03
2.386,0.65,0.16,-0.33,-0.18,-0.32,-0.03
2.387,0.65,0.16,-0.33,-0.18,-0.33,-0.04
2.39,0.65,0.16,-0.33,-0.18,-0.34,-0.05
2.39,0.62,0.16,-0.32,-0.18,-0.34,-0.05
2.39,0.62,0.16,-0.32,-0.18,-0.34,-0.06
2.393,0.62,0.16,-0.32,-0.19,-0.35,-0.08
2.394,0.55,0.12,-0.28,-0.19,-0.35,-0.08
2.398,0.55,0.12,-0.28,-0.19,-0.35,-0.09
2.399,0.46,0.14,-0.25,-0.19,-0.35,-0.09
2.399,0.46,0.14,-0.25,-0.19,-0.35,-0.10
2.402,0.46,0.14,-0.25,-0.19,-0.35,-0.11
2.402,0.46,0.14,-0.25,-0.19,-0.35,-0.11
2.403,0.35,0.16,-0.22,-0.19,-0.35,-0.11
2.406,0.26,0.15,-0.19,-0.19,-0.35,-0.11
2.407,0.26,0.15,-0.19,-0.19,-0.34,-0.12
2.41,0.26,0.15,-0.19,-0.19,-0.34,-0.12
2.41,0.12,0.17,-0.17,-0.19,-0.34,-0.12
2.411,0.12,0.17,-0.17,-0.19,-0.33,-0.13
2.415,0.12,0.17,-0.17,-0.19,-0.33,-0.13
2.415,0.09,0.13,-0.14,-0.19,-0.33,-0.13
2.418,0.09,0.13,-0.14,-0.19,-0.32,-0.14
2.418,0.09,0.13,-0.14,-0.19,-0.31,-0.14
2.418,0.01,0.08,-0.11,-0.19,-0.31,-0.14
2.422,0.01,0.08,-0.11,-0.19,-0.30,-0.14
2.422,-0.04,0.04,-0.08,-0.19,-0.30,-0.14
2.423,-0.04,0.04,-0.08,-0.19,-0.30,-0.15
2.427,-0.04,0.04,-0.08,-0.18,-0.29,-0.15
2.427,-0.05,-0.00,-0.07,-0.18,-0.29,-0.15
2.43,-0.05,-0.00,-0.07,-0.18,-0.29,-0.15
2.432,-0.08,-0.06,-0.02,-0.18,-0.29,-0.15
2.433,-0.08,-0.06,-0.02,-0.18,-0.28,-0.15
2.433,-0.08,-0.06,-0.02,-0.18,-0.27,-0.16
2.434,-0.15,-0.09,-0.01,-0.18,-0.27,-0.16
2.438,-0.15,-0.09,-0.01,-0.18,-0.27,-0.16
2.438,-0.15,-0.09,-0.01,-0.18,-0.26,-0.16
2.439,-0.17,-0.12,0.02,-0.18,-0.26,-0.16
2.442,-0.17,-0.12,0.02,-0.18,-0.26,-0.17
2.442,-0.20,-0.17,0.04,-0.18,-0.26,-0.17
2.442,-0.20,-0.17,0.04,-0.18,-0.26,-0.17
2.446,-0.20,-0.17,0.04,-0.18,-0.26,-0.17
2.447,-0.24,-0.20,0.06,-0.18,-0.26,-0.17
2.452,-0.24,-0.20,0.06,-0.18,-0.25,-0.17
2.473,-0.24,-0.20,0.06,-0.18,-0.25,-0.17
2.474,-0.29,-0.20,0.07,-0.18,-0.25,-0.17
2.474,-0.29,-0.20,0.07,-0.18,-0.24,-0.17
2.474,-0.36,-0.25,0.11,-0.18,-0.24,-0.17
2.475,-0.41,-0.24,0.12,-0.18,-0.24,-0.17
2.475,-0.41,-0.24,0.12,-0.18,-0.24,-0.16
2.475,-0.41,-0.24,0.12,-0.17,-0.24,-0.16
2.476,-0.41,-0.24,0.12,-0.17,-0.23,-0.16
2.476,-0.41,-0.24,0.12,-0.17,-0.22,-0.15
2.476,-0.46,-0.25,0.12,-0.17,-0.22,-0.15
2.477,-0.53,-0.27,0.13,-0.17,-0.22,-0.15
2.477,-0.53,-0.27,0.13,-0.17,-0.21,-0.15
2.477,-0.53,-0.27,0.13,-0.17,-0.20,-0.14
2.477,-0.53,-0.27,0.13,-0.17,-0.19,-0.14
2.477,-0.57,-0.27,0.15,-0.17,-0.19,-0.14
2.478,-0.57,-0.27,0.15,-0.16,-0.18,-0.13
2.478,-0.60,-0.30,0.17,-0.16,-0.18,-0.13
2.479,-0.63,-0.29,0.18,-0.16,-0.18,-0.13
2.48,-0.63,-0.29,0.18,-0.16,-0.17,-0.12
2.48,-0.63,-0.29,0.18,-0.15,-0.16,-0.11
2.481,-0.63,-0.29,0.18,-0.15,-0.14,-0.10
2.483,-0.61,-0.28,0.20,-0.15,-0.14,-0.10
2.483,-0.61,-0.28,0.20,-0.14,-0.13,-0.10
2.486,-0.61,-0.28,0.20,-0.14,-0.11,-0.09
2.486,-0.58,-0.29,0.20,-0.14,-0.11,-0.09
2.49,-0.55,-0.32,0.20,-0.14,-0.11,-0.09
2.491,-0.55,-0.32,0.20,-0.13,-0.09,-0.08
2.491,-0.55,-0.32,0.20,-0.12,-0.08,-0.07
2.493,-0.55,-0.32,0.20,-0.11,-0.06,-0.07
2.494,-0.53,-0.30,0.19,-0.11,-0.06,-0.07
2.498,-0.53,-0.30,0.19,-0.11,-0.04,-0.06
2.498,-0.46,-0.31,0.17,-0.11,-0.04,-0.06
2.499,-0.46,-0.31,0.17,-0.10,-0.02,-0.06
2.502,-0.46,-0.31,0.17,-0.10,-0.01,-0.06
2.502,-0.41,-0.33,0.19,-0.10,-0.01,-0.06
2.502,-0.41,-0.33,0.19,-0.10,0.00,-0.06
2.506,-0.32,-0.30,0.15,-0.10,0.00,-0.06
2.506,-0.32,-0.30,0.15,-0.09,0.02,-0.05
2.51,-0.32,-0.30,0.15,-0.09,0.03,-0.05
2.51,-0.31,-0.31,0.15,-0.09,0.03,-0.05
2.51,-0.31,-0.31,0.15,-0.08,0.03,-0.05
2.514,-0.31,-0.31,0.15,-0.08,0.04,-0.05
2.516,-0.30,-0.31,0.15,-0.08,0.04,-0.05
2.517,-0.30,-0.31,0.15,-0.08,0.04,-0.05
2.519,-0.30,-0.31,0.15,-0.08,0.05,-0.05
2.519,-0.26,-0.31,0.14,-0.08,0.05,-0.05
2.522,-0.26,-0.31,0.14,-0.08,0.04,-0.05
2.522,-0.26,-0.31,0.14,-0.08,0.04,-0.05
2.522,-0.25,-0.31,0.14,-0.08,0.04,-0.05
2.526,-0.27,-0.28,0.14,-0.08,0.04,-0.05
2.527,-0.27,-0.28,0.14,-0.08,0.04,-0.05
2.53,-0.27,-0.28,0.14,-0.09,0.03,-0.05
2.53,-0.27,-0.28,0.14,-0.09,0.02,-0.05
2.53,-0.24,-0.26,0.12,-0.09,0.02,-0.05
2.534,-0.24,-0.26,0.12,-0.09,0.02,-0.05
2.534,-0.22,-0.29,0.10,-0.09,0.02,-0.05
2.537,-0.22,-0.29,0.10,-0.10,0.00,-0.04
2.538,-0.24,-0.24,0.10,-0.10,0.00,-0.04
2.538,-0.24,-0.24,0.10,-0.10,-0.00,-0.04
2.542,-0.24,-0.24,0.10,-0.10,-0.01,-0.04
2.542,-0.24,-0.24,0.10,-0.11,-0.02,-0.04
2.542,-0.24,-0.25,0.09,-0.11,-0.02,-0.04
2.546,-0.24,-0.25,0.09,-0.11,-0.03,-0.04
2.547,-0.24,-0.24,0.08,-0.11,-0.03,-0.04
2.551,-0.24,-0.24,0.08,-0.12,-0.04,-0.03
2.552,-0.24,-0.24,0.08,-0.12,-0.04,-0.03
2.552,-0.26,-0.24,0.10,-0.12,-0.04,-0.03
2.554,-0.26,-0.24,0.10,-0.13,-0.05,-0.02
2.554,-0.28,-0.19,0.09,-0.13,-0.05,-0.02
2.557,-0.28,-0.19,0.09,-0.13,-0.05,-0.02
2.558,-0.28,-0.17,0.11,-0.13,-0.05,-0.02
2.559,-0.28,-0.17,0.11,-0.13,-0.05,-0.02
2.562,-0.28,-0.17,0.11,-0.13,-0.05,-0.01
2.562,-0.25,-0.19,0.13,-0.13,-0.05,-0.01
2.562,-0.25,-0.19,0.13,-0.13,-0.05,-0.00
2.566,-0.24,-0.15,0.15,-0.13,-0.05,-0.00
2.566,-0.24,-0.15,0.15,-0.13,-0.04,0.00
2.568,-0.24,-0.15,0.15,-0.12,-0.03,0.01
2.569,-0.19,-0.13,0.16,-0.12,-0.03,0.01
2.57,-0.19,-0.13,0.16,-0.12,-0.02,0.01
2.572,-0.19,-0.13,0.16,-0.11,-0.01,0.01
2.574,-0.14,-0.15,0.18,-0.11,-0.01,0.01
2.577,-0.14,-0.15,0.18,-0.11,0.00,0.01
2.578,-0.12,-0.07,0.18,-0.11,0.00,0.01
2.579,-0.12,-0.07,0.18,-0.10,0.02,0.02
2.581,-0.12,-0.07,0.18,-0.09,0.03,0.02
2.583,-0.12,-0.07,0.18,-0.09,0.05,0.02
2.584,-0.09,-0.05,0.19,-0.09,0.05,0.02
2.586,-0.06,0.00,0.19,-0.09,0.05,0.02
2.587,-0.06,0.00,0.19,-0.08,0.06,0.02
2.59,-0.06,0.00,0.19,-0.07,0.07,0.02
2.59,-0.06,0.07,0.17,-0.07,0.07,0.02
2.59,-0.06,0.07,0.17,-0.06,0.09,0.02
2.594,-0.06,0.07,0.17,-0.06,0.10,0.02
2.594,-0.08,0.20,0.18,-0.06,0.10,0.02
2.598,-0.08,0.20,0.18,-0.05,0.11,0.02
2.598,-0.08,0.23,0.15,-0.05,0.11,0.02
2.598,-0.08,0.23,0.15,-0.04,0.12,0.02
2.601,-0.08,0.23,0.15,-0.03,0.13,0.02
2.602,-0.08,0.23,0.15,-0.03,0.14,0.03
2.621,-0.11,0.31,0.17,-0.03,0.14,0.03
2.621,-0.10,0.38,0.14,-0.03,0.14,0.03
2.621,-0.10,0.38,0.14,-0.02,0.14,0.03
2.621,-0.10,0.38,0.14,-0.02,0.15,0.03
2.621,-0.11,0.42,0.12,-0.02,0.15,0.03
2.621,-0.11,0.42,0.12,-0.01,0.15,0.03
2.621,-0.11,0.42,0.12,-0.01,0.15,0.03
2.622,-0.08,0.43,0.12,-0.01,0.15,0.03
2.622,-0.08,0.43,0.12,-0.00,0.16,0.03
2.622,-0.04,0.49,0.07,-0.00,0.16,0.03
2.622,-0.04,0.49,0.07,0.00,0.16,0.03
2.622,-0.04,0.49,0.07,0.00,0.16,0.03
2.622,-0.04,0.49,0.07,0.00,0.16,0.03
2.622,0.00,0.50,0.06,0.00,0.16,0.03
2.626,0.03,0.49,0.03,0.00,0.16,0.03
2.626,0.03,0.49,0.03,0.01,0.15,0.03
2.63,0.03,0.49,0.03,0.01,0.15,0.04
2.63,0.03,0.49,0.03,0.00,0.14,0.03
2.63,0.10,0.47,-0.00,0.00,0.14,0.03
2.634,0.10,0.47,-0.00,0.01,0.14,0.03
2.635,0.17,0.41,-0.01,0.01,0.14,0.03
2.638,0.17,0.41,-0.01,0.01,0.13,0.03
2.638,0.24,0.39,-0.04,0.01,0.13,0.03
2.638,0.24,0.39,-0.04,-0.00,0.12,0.03
2.642,0.24,0.39,-0.04,-0.01,0.11,0.03
2.642,0.28,0.30,-0.07,-0.01,0.11,0.03
2.642,0.28,0.30,-0.07,-0.01,0.10,0.03
2.647,0.28,0.30,-0.07,-0.01,0.09,0.03
2.647,0.35,0.26,-0.09,-0.01,0.09,0.03
2.65,0.35,0.26,-0.09,-0.01,0.08,0.03
2.65,0.35,0.26,-0.09,-0.02,0.06,0.03
2.651,0.41,0.18,-0.11,-0.02,0.06,0.03
2.656,0.46,0.13,-0.11,-0.02,0.06,0.03
2.657,0.46,0.13,-0.11,-0.03,0.05,0.03
2.657,0.46,0.13,-0.11,-0.04,0.04,0.03
2.657,0.46,0.13,-0.11,-0.05,0.02,0.03
2.658,0.48,0.07,-0.13,-0.05,0.02,0.03
2.662,0.48,0.07,-0.13,-0.06,0.01,0.03
2.662,0.48,0.07,-0.13,-0.07,-0.01,0.03
2.663,0.50,0.07,-0.13,-0.07,-0.01,0.03
2.668,0.50,0.07,-0.13,-0.07,-0.03,0.03
2.67,0.50,0.01,-0.13,-0.07,-0.03,0.03
2.67,0.50,0.01,-0.13,-0.08,-0.04,0.03
2.67,0.52,0.04,-0.14,-0.08,-0.04,0.03
2.67,0.52,0.04,-0.14,-0.09,-0.06,0.03
2.674,0.52,0.04,-0.14,-0.10,-0.08,0.03
2.675,0.53,0.03,-0.13,-0.10,-0.08,0.03
2.677,0.53,0.03,-0.13,-0.11,-0.09,0.03
2.679,0.53,0.03,-0.14,-0.11,-0.09,0.03
2.679,0.53,0.03,-0.14,-0.12,-0.11,0.02
2.684,0.53,0.03,-0.14,-0.13,-0.12,0.02
2.685,0.52,0.05,-0.13,-0.13,-0.12,0.02
2.685,0.52,0.05,-0.13,-0.14,-0.14,0.02
2.686,0.52,0.05,-0.13,-0.15,-0.15,0.01
2.686,0.52,0.09,-0.12,-0.15,-0.15,0.01
2.69,0.52,0.09,-0.12,-0.16,-0.15,0.01
2.69,0.52,0.09,-0.12,-0.17,-0.16,0.00
2.69,0.47,0.11,-0.08,-0.17,-0.16,0.00
2.694,0.47,0.11,-0.08,-0.17,-0.17,-0.01
2.695,0.43,0.18,-0.05,-0.17,-0.17,-0.01
2.698,0.43,0.18,-0.05,-0.18,-0.17,-0.02
2.7,0.40,0.18,-0.02,-0.18,-0.17,-0.02
2.701,0.40,0.18,-0.02,-0.18,-0.17,-0.03
2.701,0.40,0.18,-0.02,-0.18,-0.17,-0.04
2.702,0.31,0.17,0.04,-0.18,-0.17,-0.04
2.706,0.31,0.17,0.04,-0.19,-0.17,-0.05
2.706,0.24,0.19,0.07,-0.19,-0.17,-0.05
2.706,0.24,0.19,0.07,-0.19,-0.16,-0.06
2.71,0.24,0.19,0.07,-0.19,-0.15,-0.06
2.71,0.24,0.19,0.07,-0.18,-0.15,-0.07
2.711,0.16,0.18,0.13,-0.18,-0.15,-0.07
2.714,0.16,0.18,0.13,-0.18,-0.14,-0.08
2.714,0.06,0.14,0.18,-0.18,-0.14,-0.08
2.717,0.06,0.14,0.18,-0.18,-0.13,-0.08
2.718,-0.01,0.15,0.24,-0.18,-0.13,-0.08
2.719,-0.01,0.15,0.24,-0.17,-0.12,-0.08
2.722,-0.01,0.15,0.24,-0.17,-0.10,-0.09
2.722,-0.11,0.14,0.26,-0.17,-0.10,-0.09
2.726,-0.11,0.14,0.26,-0.16,-0.09,-0.09
2.726,-0.20,0.13,0.29,-0.16,-0.09,-0.09
2.726,-0.20,0.13,0.29,-0.15,-0.09,-0.09
2.729,-0.20,0.13,0.29,-0.14,-0.08,-0.09
2.73,-0.23,0.09,0.34,-0.14,-0.08,-0.09
2.73,-0.23,0.09,0.34,-0.13,-0.07,-0.09
2.734,-0.32,0.06,0.38,-0.13,-0.07,-0.09
2.735,-0.32,0.06,0.38,-0.13,-0.06,-0.09
2.737,-0.32,0.06,0.38,-0.12,-0.06,-0.09
2.738,-0.32,0.06,0.38,-0.11,-0.05,-0.08
2.738,-0.38,0.02,0.40,-0.11,-0.05,-0.08
2.742,-0.38,0.02,0.40,-0.11,-0.05,-0.08
2.742,-0.40,-0.02,0.41,-0.11,-0.05,-0.08
2.746,-0.40,-0.02,0.41,-0.10,-0.05,-0.08
2.747,-0.40,-0.02,0.41,-0.10,-0.05,-0.07
2.747,-0.43,-0.03,0.43,-0.10,-0.05,-0.07
2.75,-0.43,-0.03,0.43,-0.09,-0.05,-0.07
2.751,-0.43,-0.03,0.43,-0.09,-0.06,-0.06
2.751,-0.49,-0.09,0.44,-0.09,-0.06,-0.06
2.755,-0.49,-0.09,0.44,-0.08,-0.07,-0.06
2.757,-0.50,-0.12,0.43,-0.08,-0.07,-0.06
2.757,-0.50,-0.12,0.43,-0.08,-0.08,-0.05
2.774,-0.53,-0.13,0.43,-0.08,-0.08,-0.05
2.774,-0.53,-0.13,0.43,-0.07,-0.09,-0.04
2.774,-0.53,-0.13,0.43,-0.07,-0.10,-0.04
2.774,-0.51,-0.17,0.44,-0.07,-0.10,-0.04
2.775,-0.51,-0.17,0.44,-0.07,-0.12,-0.03
2.775,-0.53,-0.16,0.42,-0.07,-0.12,-0.03
2.775,-0.53,-0.16,0.42,-0.07,-0.14,-0.02
2.775,-0.53,-0.16,0.42,-0.07,-0.16,-0.01
2.775,-0.51,-0.16,0.44,-0.07,-0.16,-0.01
2.776,-0.51,-0.16,0.44,-0.07,-0.18,-0.00
2.776,-0.49,-0.17,0.44,-0.07,-0.18,-0.00
2.776,-0.49,-0.17,0.44,-0.07,-0.21,0.01
2.78,-0.49,-0.17,0.44,-0.08,-0.23,0.01
2.78,-0.46,-0.13,0.44,-0.08,-0.23,0.01
2.78,-0.46,-0.13,0.44,-0.08,-0.25,0.02
2.781,-0.46,-0.13,0.44,-0.08,-0.28,0.03
2.783,-0.43,-0.13,0.44,-0.08,-0.28,0.03
2.786,-0.43,-0.13,0.44,-0.08,-0.31,0.03
2.786,-0.42,-0.09,0.47,-0.08,-0.31,0.03
2.787,-0.42,-0.09,0.47,-0.08,-0.33,0.04
2.79,-0.42,-0.09,0.47,-0.09,-0.35,0.04
2.79,-0.42,-0.09,0.47,-0.09,-0.38,0.05
2.79,-0.35,-0.07,0.46,-0.09,-0.38,0.05
2.794,-0.35,-0.07,0.46,-0.09,-0.40,0.05
2.795,-0.32,-0.04,0.47,-0.09,-0.40,0.05
2.798,-0.32,-0.04,0.47,-0.09,-0.42,0.05
2.802,-0.32,-0.02,0.50,-0.09,-0.42,0.05
2.802,-0.32,-0.02,0.50,-0.09,-0.43,0.05
2.802,-0.32,-0.02,0.50,-0.09,-0.44,0.05
2.805,-0.28,-0.03,0.50,-0.09,-0.44,0.05
2.805,-0.28,-0.03,0.50,-0.09,-0.46,0.06
2.806,-0.28,-0.03,0.50,-0.08,-0.46,0.06
2.806,-0.26,0.00,0.50,-0.08,-0.46,0.06
2.81,-0.26,0.00,0.50,-0.08,-0.46,0.06
2.81,-0.25,0.01,0.52,-0.08,-0.46,0.06
2.81,-0.25,0.01,0.52,-0.07,-0.46,0.07
2.814,-0.25,0.01,0.52,-0.06,-0.46,0.07
2.814,-0.23,0.03,0.55,-0.06,-0.46,0.07
2.819,-0.20,0.02,0.56,-0.06,-0.46,0.07
2.82,-0.20,0.02,0.56,-0.06,-0.45,0.07
2.82,-0.20,0.02,0.56,-0.04,-0.44,0.07
2.822,-0.20,0.02,0.56,-0.03,-0.42,0.08
2.822,-0.17,0.01,0.55,-0.03,-0.42,0.08
2.826,-0.17,0.01,0.55,-0.02,-0.41,0.08
2.826,-0.13,0.01,0.57,-0.02,-0.41,0.08
2.826,-0.13,0.01,0.57,-0.00,-0.39,0.08
2.83,-0.13,0.01,0.57,0.01,-0.37,0.08
2.83,-0.08,0.00,0.56,0.01,-0.37,0.08
2.831,-0.08,0.00,0.56,0.03,-0.34,0.09
2.834,-0.03,-0.00,0.55,0.03,-0.34,0.09
2.836,-0.03,-0.00,0.55,0.04,-0.32,0.09
2.838,-0.03,-0.00,0.55,0.06,-0.29,0.09
2.838,-0.03,-0.00,0.55,0.07,-0.27,0.09
2.838,0.04,-0.02,0.52,0.07,-0.27,0.09
2.842,0.04,-0.02,0.52,0.09,-0.25,0.10
2.842,0.10,-0.03,0.49,0.09,-0.25,0.10
2.846,0.10,-0.03,0.49,0.10,-0.22,0.10
2.846,0.10,-0.03,0.49,0.12,-0.20,0.10
2.846,0.16,-0.03,0.47,0.12,-0.20,0.10
2.849,0.16,-0.03,0.47,0.13,-0.18,0.10
2.851,0.16,-0.03,0.47,0.14,-0.17,0.10
2.852,0.21,-0.05,0.41,0.14,-0.17,0.10
2.854,0.29,-0.06,0.36,0.14,-0.17,0.10
2.855,0.29,-0.06,0.36,0.15,-0.15,0.10
2.858,0.29,-0.06,0.36,0.15,-0.14,0.10
2.858,0.29,-0.06,0.36,0.16,-0.13,0.10
2.858,0.32,-0.06,0.33,0.16,-0.13,0.10
2.862,0.32,-0.06,0.33,0.16,-0.13,0.10
2.862,0.39,-0.05,0.27,0.16,-0.13,0.10
2.866,0.39,-0.05,0.27,0.16,-0.13,0.10
2.866,0.39,-0.05,0.27,0.16,-0.13,0.10
2.866,0.42,-0.06,0.23,0.16,-0.13,0.10
2.869,0.42,-0.06,0.23,0.16,-0.13,0.10
2.869,0.42,-0.06,0.23,0.16,-0.13,0.10
2.87,0.44,-0.01,0.17,0.16,-0.13,0.10
2.874,0.44,-0.01,0.17,0.16,-0.14,0.10
2.875,0.46,0.05,0.13,0.16,-0.14,0.10
2.878,0.46,0.05,0.13,0.16,-0.14,0.10
2.878,0.44,0.07,0.10,0.16,-0.14,0.10
2.878,0.44,0.07,0.10,0.16,-0.15,0.10
2.882,0.44,0.07,0.10,0.15,-0.16,0.10
2.882,0.44,0.14,0.09,0.15,-0.16,0.10
2.885,0.44,0.14,0.09,0.15,-0.16,0.10
2.886,0.40,0.19,0.05,0.15,-0.16,0.10
2.886,0.40,0.19,0.05,0.14,-0.17,0.10
2.89,0.40,0.19,0.05,0.14,-0.18,0.10
2.89,0.40,0.19,0.05,0.13,-0.18,0.10
2.89,0.39,0.25,0.02,0.13,-0.18,0.10
2.894,0.39,0.25,0.02,0.12,-0.19,0.10
2.894,0.36,0.31,0.00,0.12,-0.19,0.10
2.898,0.36,0.31,0.00,0.12,-0.19,0.10
2.898,0.37,0.38,-0.02,0.12,-0.19,0.10
2.898,0.37,0.38,-0.02,0.11,-0.19,0.10
2.902,0.41,0.37,-0.02,0.11,-0.19,0.10
2.904,0.41,0.37,-0.02,0.11,-0.20,0.10
2.905,0.41,0.37,-0.02,0.11,-0.20,0.10
2.906,0.43,0.36,-0.05,0.11,-0.20,0.10
2.906,0.43,0.36,-0.05,0.10,-0.20,0.10
2.909,0.43,0.36,-0.05,0.09,-0.20,0.10
2.91,0.43,0.36,-0.05,0.09,-0.20,0.10
2.93,0.46,0.38,-0.06,0.09,-0.20,0.10
2.931,0.45,0.39,-0.07,0.09,-0.20,0.10
2.931,0.45,0.39,-0.07,0.08,-0.19,0.10
2.931,0.45,0.39,-0.07,0.08,-0.19,0.10
2.931,0.45,0.39,-0.07,0.08,-0.19,0.09
2.931,0.46,0.37,-0.09,0.08,-0.19,0.09
2.931,0.46,0.37,-0.09,0.07,-0.18,0.09
2.932,0.51,0.38,-0.09,0.07,-0.18,0.09
2.932,0.51,0.38,-0.09,0.07,-0.17,0.09
2.932,0.51,0.35,-0.09,0.07,-0.17,0.09
2.932,0.51,0.35,-0.09,0.06,-0.17,0.08
2.932,0.51,0.35,-0.09,0.06,-0.16,0.08
2.933,0.51,0.35,-0.09,0.06,-0.15,0.08
2.933,0.51,0.31,-0.10,0.06,-0.15,0.08
2.939,0.51,0.31,-0.10,0.06,-0.14,0.08
2.939,0.53,0.31,-0.12,0.06,-0.14,0.08
2.939,0.53,0.31,-0.12,0.05,-0.12,0.07
2.939,0.51,0.26,-0.12,0.05,-0.12,0.07
2.939,0.51,0.26,-0.12,0.05,-0.11,0.07
2.942,0.51,0.26,-0.12,0.04,-0.09,0.07
2.943,0.53,0.25,-0.13,0.04,-0.09,0.07
2.945,0.53,0.25,-0.13,0.04,-0.08,0.07
2.946,0.53,0.25,-0.13,0.04,-0.06,0.07
2.946,0.53,0.23,-0.13,0.04,-0.06,0.07
2.951,0.53,0.23,-0.13,0.04,-0.05,0.06
2.951,0.53,0.23,-0.13,0.04,-0.03,0.06
2.951,0.53,0.20,-0.15,0.04,-0.03,0.06
2.959,0.54,0.21,-0.15,0.04,-0.03,0.06
2.959,0.54,0.21,-0.15,0.03,-0.01,0.06
2.96,0.54,0.21,-0.15,0.03,0.00,0.06
2.96,0.54,0.21,-0.15,0.03,0.02,0.05
2.96,0.50,0.19,-0.16,0.03,0.02,0.05
2.961,0.50,0.19,-0.16,0.02,0.03,0.05
2.962,0.50,0.16,-0.15,0.02,0.03,0.05
2.967,0.47,0.20,-0.15,0.02,0.03,0.05
2.968,0.47,0.20,-0.15,0.02,0.05,0.05
2.968,0.47,0.20,-0.15,0.02,0.07,0.04
2.971,0.47,0.20,-0.15,0.02,0.08,0.04
2.971,0.45,0.20,-0.19,0.02,0.08,0.04
2.972,0.45,0.20,-0.19,0.01,0.09,0.04
2.975,0.46,0.19,-0.18,0.01,0.09,0.04
2.975,0.46,0.19,-0.18,0.01,0.10,0.03
2.978,0.46,0.19,-0.18,0.01,0.11,0.03
2.979,0.41,0.19,-0.17,0.01,0.11,0.03
2.979,0.41,0.19,-0.17,0.00,0.12,0.03
2.982,0.41,0.19,-0.17,0.00,0.13,0.03
2.986,0.41,0.15,-0.17,0.00,0.13,0.03
2.986,0.41,0.15,-0.17,-0.00,0.14,0.02
2.986,0.41,0.15,-0.17,-0.01,0.15,0.02
2.987,0.38,0.15,-0.16,-0.01,0.15,0.02
2.989,0.38,0.15,-0.16,-0.01,0.15,0.02
2.99,0.35,0.15,-0.15,-0.01,0.15,0.02
2.99,0.35,0.15,-0.15,-0.01,0.16,0.01
2.994,0.35,0.14,-0.14,-0.01,0.16,0.01
2.994,0.35,0.14,-0.14,-0.02,0.16,0.01
2.997,0.35,0.14,-0.14,-0.02,0.17,0.01
2.998,0.35,0.14,-0.14,-0.02,0.17,0.01
2.998,0.32,0.10,-0.14,-0.02,0.17,0.01
3.002,0.32,0.10,-0.14,-0.02,0.17,0.00
3.002,0.29,0.09,-0.13,-0.02,0.17,0.00
3.005,0.29,0.09,-0.13,-0.03,0.17,0.00
3.005,0.24,0.06,-0.10,-0.03,0.17,0.00
3.006,0.24,0.06,-0.10,-0.03,0.17,-0.00
3.01,0.24,0.06,-0.10,-0.03,0.17,-0.00
3.01,0.24,0.06,-0.10,-0.03,0.17,-0.00
3.01,0.21,0.06,-0.09,-0.03,0.17,-0.00
3.014,0.21,0.06,-0.09,-0.03,0.17,-0.00
3.015,0.15,0.08,-0.08,-0.03,0.17,-0.00
3.018,0.15,0.08,-0.08,-0.03,0.17,-0.01
3.019,0.10,0.06,-0.07,-0.03,0.17,-0.01
3.02,0.10,0.06,-0.07,-0.04,0.17,-0.01
3.021,0.10,0.06,-0.07,-0.04,0.16,-0.00
3.022,0.03,0.08,-0.05,-0.04,0.16,-0.00
3.026,-0.03,0.11,-0.05,-0.04,0.16,-0.00
3.027,-0.03,0.11,-0.05,-0.04,0.16,-0.00
3.027,-0.03,0.11,-0.05,-0.04,0.16,0.00
3.029,-0.03,0.11,-0.05,-0.04,0.16,0.01
3.03,-0.09,0.14,-0.05,-0.04,0.16,0.01
3.03,-0.09,0.14,-0.05,-0.04,0.16,0.01
3.035,-0.15,0.20,-0.05,-0.04,0.16,0.01
3.036,-0.15,0.20,-0.05,-0.03,0.16,0.02
3.038,-0.15,0.20,-0.05,-0.04,0.16,0.02
3.038,-0.15,0.20,-0.05,-0.04,0.16,0.03
3.038,-0.18,0.24,-0.05,-0.04,0.16,0.03
3.042,-0.18,0.24,-0.05,-0.04,0.16,0.04
3.042,-0.20,0.27,-0.06,-0.04,0.16,0.04
3.045,-0.20,0.27,-0.06,-0.04,0.16,0.04
3.046,-0.20,0.27,-0.06,-0.03,0.16,0.05
3.046,-0.20,0.26,-0.04,-0.03,0.16,0.05
3.049,-0.20,0.26,-0.04,-0.03,0.16,0.05
3.056,-0.20,0.26,-0.04,-0.03,0.16,0.06
3.056,-0.12,0.24,-0.06,-0.03,0.16,0.06
3.057,-0.12,0.24,-0.06,-0.03,0.16,0.06
3.058,-0.06,0.21,-0.08,-0.03,0.16,0.06
3.058,0.06,0.18,-0.07,-0.03,0.16,0.06
3.058,0.06,0.18,-0.07,-0.03,0.16,0.06
3.058,0.06,0.18,-0.07,-0.03,0.16,0.06
3.061,0.06,0.18,-0.07,-0.03,0.17,0.07
3.062,0.12,0.14,-0.07,-0.03,0.17,0.07
3.065,0.12,0.14,-0.07,-0.03,0.17,0.06
3.08,0.12,0.14,-0.07,-0.03,0.17,0.06
3.08,0.19,0.11,-0.09,-0.03,0.17,0.06
3.08,0.19,0.11,-0.09,-0.03,0.17,0.06
3.08,0.22,0.04,-0.11,-0.03,0.17,0.06
3.08,0.22,0.04,-0.11,-0.03,0.18,0.06
3.081,0.26,0.01,-0.13,-0.03,0.18,0.06
3.081,0.26,0.01,-0.13,-0.03,0.18,0.06
3.081,0.26,0.01,-0.13,-0.03,0.18,0.06
3.081,0.28,0.01,-0.12,-0.03,0.18,0.06
3.081,0.28,0.01,-0.12,-0.03,0.19,0.06
3.081,0.28,0.01,-0.12,-0.03,0.19,0.05
3.085,0.29,-0.00,-0.12,-0.03,0.19,0.05
3.086,0.29,-0.00,-0.12,-0.03,0.19,0.05
3.086,0.29,-0.00,-0.12,-0.03,0.20,0.05
3.086,0.29,-0.02,-0.11,-0.03,0.20,0.05
3.09,0.29,-0.02,-0.11,-0.03,0.20,0.05
3.091,0.29,-0.02,-0.11,-0.03,0.21,0.05
3.091,0.27,-0.02,-0.14,-0.03,0.21,0.05
3.094,0.27,-0.02,-0.14,-0.03,0.21,0.05
3.094,0.26,0.00,-0.12,-0.03,0.21,0.05
3.098,0.26,0.00,-0.12,-0.03,0.21,0.06
3.098,0.26,0.00,-0.12,-0.03,0.22,0.06
3.098,0.22,0.03,-0.12,-0.03,0.22,0.06
3.103,0.22,0.03,-0.12,-0.02,0.22,0.06
3.103,0.22,0.06,-0.12,-0.02,0.22,0.06
3.105,0.22,0.06,-0.12,-0.02,0.22,0.06
3.105,0.22,0.06,-0.12,-0.02,0.23,0.06
3.105,0.22,0.11,-0.11,-0.02,0.23,0.06
3.109,0.22,0.11,-0.11,-0.02,0.23,0.06
3.109,0.21,0.14,-0.12,-0.02,0.23,0.06
3.109,0.21,0.14,-0.12,-0.02,0.23,0.06
3.114,0.21,0.14,-0.12,-0.02,0.23,0.05
3.114,0.22,0.14,-0.12,-0.02,0.23,0.05
3.119,0.22,0.14,-0.12,-0.02,0.23,0.05
3.119,0.22,0.14,-0.12,-0.01,0.23,0.05
3.119,0.22,0.16,-0.13,-0.01,0.23,0.05
3.121,0.22,0.16,-0.13,-0.02,0.22,0.04
3.121,0.23,0.13,-0.13,-0.02,0.22,0.04
3.126,0.23,0.13,-0.13,-0.01,0.22,0.04
3.126,0.24,0.14,-0.12,-0.01,0.22,0.04
3.126,0.24,0.14,-0.12,-0.01,0.22,0.04
3.129,0.24,0.14,-0.12,-0.02,0.22,0.03
3.13,0.24,0.14,-0.12,-0.01,0.21,0.03
3.13,0.23,0.11,-0.12,-0.01,0.21,0.03
3.135,0.22,0.10,-0.13,-0.01,0.21,0.03
3.136,0.22,0.10,-0.13,-0.01,0.20,0.03
3.138,0.22,0.10,-0.13,-0.01,0.20,0.03
3.139,0.21,0.10,-0.12,-0.01,0.20,0.03
3.139,0.21,0.10,-0.12,-0.01,0.19,0.02
3.141,0.21,0.10,-0.12,-0.01,0.18,0.02
3.142,0.16,0.11,-0.12,-0.01,0.18,0.02
3.145,0.16,0.11,-0.12,-0.01,0.18,0.02
3.145,0.11,0.14,-0.10,-0.01,0.18,0.02
3.146,0.11,0.14,-0.10,-0.01,0.17,0.01
3.149,0.11,0.14,-0.10,-0.01,0.16,0.01
3.15,0.11,0.14,-0.10,-0.01,0.16,0.01
3.15,0.05,0.14,-0.07,-0.01,0.16,0.01
3.154,0.05,0.14,-0.07,-0.01,0.15,0.01
3.155,0.02,0.16,-0.07,-0.01,0.15,0.01
3.155,0.02,0.16,-0.07,-0.00,0.15,0.01
3.159,-0.04,0.18,-0.05,-0.00,0.15,0.01
3.16,-0.04,0.18,-0.05,-0.00,0.14,0.00
3.16,-0.04,0.18,-0.05,0.00,0.13,0.00
3.164,-0.04,0.18,-0.05,0.01,0.13,0.00
3.164,-0.09,0.15,-0.03,0.01,0.13,0.00
3.166,-0.13,0.18,-0.02,0.01,0.13,0.00
3.166,-0.13,0.18,-0.02,0.01,0.12,-0.00
3.171,-0.13,0.18,-0.02,0.02,0.11,-0.01
3.172,-0.13,0.18,-0.02,0.02,0.10,-0.01
3.172,-0.15,0.17,-0.01,0.02,0.10,-0.01
3.175,-0.14,0.12,-0.00,0.02,0.10,-0.01
3.175,-0.14,0.12,-0.00,0.03,0.10,-0.01
3.177,-0.14,0.12,-0.00,0.03,0.09,-0.01
3.178,-0.18,0.10,0.00,0.03,0.09,-0.01
3.178,-0.18,0.10,0.00,0.04,0.08,-0.02
3.182,-0.18,0.10,0.00,0.05,0.08,-0.02
3.182,-0.17,0.08,0.01,0.05,0.08,-0.02
3.186,-0.17,0.08,0.01,0.05,0.07,-0.02
3.187,-0.18,0.02,0.02,0.05,0.07,-0.02
3.187,-0.18,0.02,0.02,0.06,0.07,-0.03
3.189,-0.18,0.02,0.02,0.07,0.06,-0.03
3.19,-0.17,-0.03,0.04,0.07,0.06,-0.03
3.19,-0.17,-0.03,0.04,0.07,0.06,-0.04
3.195,-0.17,-0.10,0.03,0.07,0.06,-0.04
3.195,-0.17,-0.10,0.03,0.08,0.05,-0.04
3.197,-0.17,-0.10,0.03,0.09,0.04,-0.05
3.198,-0.18,-0.19,0.02,0.09,0.04,-0.05
3.198,-0.18,-0.19,0.02,0.10,0.04,-0.05
3.201,-0.18,-0.19,0.02,0.10,0.03,-0.06
3.204,-0.19,-0.21,0.03,0.10,0.03,-0.06
3.205,-0.19,-0.21,0.03,0.11,0.03,-0.06
3.205,-0.22,-0.29,0.02,0.11,0.03,-0.06
3.206,-0.22,-0.29,0.02,0.12,0.03,-0.07
3.21,-0.22,-0.29,0.02,0.13,0.03,-0.07
3.21,-0.24,-0.31,0.00,0.13,0.03,-0.07
3.21,-0.24,-0.31,0.00,0.14,0.03,-0.08
3.214,-0.24,-0.31,0.00,0.14,0.03,-0.08
3.215,-0.28,-0.35,0.02,0.14,0.03,-0.08
3.217,-0.28,-0.35,0.02,0.15,0.02,-0.09
3.219,-0.32,-0.38,0.02,0.15,0.02,-0.09
3.238,-0.32,-0.38,0.02,0.17,0.02,-0.09
3.238,-0.32,-0.38,0.02,0.18,0.02,-0.09
3.238,-0.38,-0.43,0.03,0.18,0.02,-0.09
3.238,-0.42,-0.46,0.04,0.18,0.02,-0.09
3.239,-0.42,-0.46,0.04,0.19,0.02,-0.09
3.239,-0.42,-0.46,0.04,0.20,0.02,-0.10
3.239,-0.42,-0.46,0.04,0.21,0.02,-0.10
3.239,-0.46,-0.52,0.03,0.21,0.02,-0.10
3.239,-0.46,-0.52,0.03,0.22,0.02,-0.10
3.239,-0.46,-0.52,0.03,0.23,0.02,-0.10
3.239,-0.52,-0.53,0.05,0.23,0.02,-0.10
3.239,-0.52,-0.53,0.05,0.24,0.02,-0.10
3.24,-0.58,-0.57,0.05,0.24,0.02,-0.10
3.24,-0.58,-0.57,0.05,0.25,0.01,-0.10
3.242,-0.58,-0.57,0.05,0.26,0.01,-0.10
3.242,-0.63,-0.56,0.03,0.26,0.01,-0.10
3.245,-0.63,-0.56,0.03,0.27,0.01,-0.10
3.247,-0.63,-0.56,0.03,0.28,0.01,-0.09
3.247,-0.70,-0.58,0.01,0.28,0.01,-0.09
3.249,-0.70,-0.58,0.01,0.29,0.01,-0.09
3.25,-0.76,-0.58,0.01,0.29,0.01,-0.09
3.25,-0.76,-0.58,0.01,0.30,0.00,-0.09
3.254,-0.76,-0.58,0.01,0.31,-0.01,-0.08
3.255,-0.83,-0.60,-0.01,0.31,-0.01,-0.08
3.257,-0.83,-0.60,-0.01,0.32,-0.01,-0.08
3.258,-0.83,-0.60,-0.01,0.33,-0.02,-0.07
3.258,-0.88,-0.62,-0.04,0.33,-0.02,-0.07
3.262,-0.88,-0.62,-0.04,0.34,-0.02,-0.07
3.262,-0.91,-0.59,-0.07,0.34,-0.02,-0.07
3.266,-0.91,-0.59,-0.07,0.34,-0.03,-0.06
3.267,-0.97,-0.60,-0.09,0.34,-0.03,-0.06
3.267,-0.97,-0.60,-0.09,0.35,-0.04,-0.05
3.27,-1.00,-0.62,-0.13,0.35,-0.04,-0.05
3.271,-1.00,-0.62,-0.13,0.36,-0.05,-0.05
3.271,-1.00,-0.62,-0.13,0.36,-0.06,-0.04
3.274,-1.00,-0.62,-0.13,0.36,-0.08,-0.04
3.274,-1.03,-0.64,-0.16,0.36,-0.08,-0.04
3.278,-1.03,-0.64,-0.16,0.37,-0.09,-0.03
3.278,-1.10,-0.63,-0.18,0.37,-0.09,-0.03
3.278,-1.10,-0.63,-0.18,0.37,-0.10,-0.02
3.281,-1.10,-0.63,-0.18,0.37,-0.12,-0.02
3.282,-1.09,-0.62,-0.20,0.37,-0.12,-0.02
3.289,-1.16,-0.64,-0.21,0.37,-0.12,-0.02
3.289,-1.16,-0.64,-0.21,0.37,-0.13,-0.01
3.289,-1.16,-0.64,-0.21,0.36,-0.14,-0.01
3.29,-1.18,-0.66,-0.22,0.36,-0.14,-0.01
3.292,-1.18,-0.66,-0.22,0.36,-0.16,-0.00
3.292,-1.18,-0.66,-0.22,0.36,-0.18,0.00
3.294,-1.21,-0.67,-0.28,0.36,-0.18,0.00
3.294,-1.21,-0.67,-0.28,0.36,-0.19,0.01
3.298,-1.21,-0.67,-0.28,0.36,-0.21,0.02
3.298,-1.21,-0.67,-0.28,0.36,-0.23,0.02
3.299,-1.22,-0.70,-0.26,0.36,-0.23,0.02
3.303,-1.22,-0.70,-0.26,0.35,-0.24,0.03
3.303,-1.20,-0.74,-0.29,0.35,-0.24,0.03
3.305,-1.20,-0.74,-0.29,0.35,-0.26,0.04
3.306,-1.20,-0.74,-0.29,0.34,-0.27,0.04
3.306,-1.21,-0.78,-0.30,0.34,-0.27,0.04
3.309,-1.21,-0.78,-0.30,0.34,-0.28,0.05
3.31,-1.21,-0.78,-0.30,0.33,-0.30,0.06
3.31,-1.22,-0.83,-0.32,0.33,-0.30,0.06
3.314,-1.22,-0.87,-0.34,0.33,-0.30,0.06
3.315,-1.22,-0.87,-0.34,0.32,-0.31,0.07
3.32,-1.22,-0.87,-0.34,0.31,-0.32,0.08
3.32,-1.21,-0.90,-0.34,0.31,-0.32,0.08
3.321,-1.21,-0.90,-0.34,0.30,-0.33,0.08
3.322,-1.21,-0.90,-0.34,0.30,-0.34,0.09
3.322,-1.25,-0.91,-0.37,0.30,-0.34,0.09
3.326,-1.25,-0.91,-0.37,0.29,-0.35,0.10
3.326,-1.25,-0.91,-0.37,0.28,-0.35,0.12
3.327,-1.29,-0.91,-0.39,0.28,-0.35,0.12
3.329,-1.29,-0.91,-0.39,0.27,-0.36,0.13
3.33,-1.29,-0.86,-0.43,0.27,-0.36,0.13
3.33,-1.29,-0.86,-0.43,0.25,-0.37,0.15
3.334,-1.29,-0.86,-0.43,0.24,-0.37,0.16
3.334,-1.30,-0.81,-0.43,0.24,-0.37,0.16
3.338,-1.31,-0.78,-0.46,0.24,-0.37,0.16
3.339,-1.31,-0.78,-0.46,0.23,-0.38,0.18
3.339,-1.31,-0.78,-0.46,0.21,-0.38,0.19
3.342,-1.31,-0.78,-0.46,0.20,-0.38,0.21
3.342,-1.32,-0.70,-0.48,0.20,-0.38,0.21
3.346,-1.32,-0.70,-0.48,0.18,-0.38,0.23
3.346,-1.32,-0.70,-0.48,0.16,-0.39,0.25
3.346,-1.33,-0.61,-0.48,0.16,-0.39,0.25
3.35,-1.33,-0.61,-0.48,0.14,-0.39,0.27
3.35,-1.33,-0.50,-0.51,0.14,-0.39,0.27
3.351,-1.33,-0.50,-0.51,0.12,-0.39,0.29
3.354,-1.33,-0.50,-0.51,0.10,-0.39,0.31
3.354,-1.26,-0.42,-0.53,0.10,-0.39,0.31
3.357,-1.26,-0.42,-0.53,0.09,-0.39,0.33
3.358,-1.22,-0.33,-0.52,0.09,-0.39,0.33
3.358,-1.22,-0.33,-0.52,0.06,-0.39,0.35
3.361,-1.22,-0.33,-0.52,0.04,-0.39,0.37
3.362,-1.08,-0.24,-0.52,0.04,-0.39,0.37
3.364,-1.08,-0.24,-0.52,0.02,-0.39,0.39
3.365,-0.96,-0.20,-0.54,0.02,-0.39,0.39
3.366,-0.96,-0.20,-0.54,-0.01,-0.39,0.41
3.367,-0.96,-0.20,-0.54,-0.03,-0.39,0.43
3.37,-0.85,-0.14,-0.54,-0.03,-0.39,0.43
3.37,-0.85,-0.14,-0.54,-0.05,-0.38,0.44
3.387,-0.85,-0.14,-0.54,-0.07,-0.38,0.46
3.387,-0.70,-0.12,-0.51,-0.07,-0.38,0.46
3.387,-0.70,-0.12,-0.51,-0.10,-0.38,0.47
3.387,-0.58,-0.07,-0.51,-0.10,-0.38,0.47
3.387,-0.58,-0.07,-0.51,-0.12,-0.37,0.49
3.388,-0.58,-0.07,-0.51,-0.15,-0.37,0.50
3.388,-0.39,-0.05,-0.51,-0.15,-0.37,0.50
3.388,-0.39,-0.05,-0.51,-0.18,-0.36,0.52
3.388,-0.25,0.02,-0.52,-0.18,-0.36,0.52
3.388,-0.25,0.02,-0.52,-0.20,-0.35,0.52
3.391,-0.25,0.02,-0.52,-0.23,-0.34,0.53
3.391,-0.09,0.05,-0.50,-0.23,-0.34,0.53
3.391,-0.09,0.05,-0.50,-0.25,-0.32,0.54
3.394,0.08,0.11,-0.52,-0.25,-0.32,0.54
3.394,0.08,0.11,-0.52,-0.28,-0.31,0.55
3.397,0.08,0.11,-0.52,-0.30,-0.29,0.55
3.398,0.08,0.11,-0.52,-0.33,-0.27,0.55
3.398,0.20,0.19,-0.53,-0.33,-0.27,0.55
3.401,0.20,0.19,-0.53,-0.35,-0.24,0.55
3.403,0.30,0.27,-0.51,-0.35,-0.24,0.55
3.405,0.30,0.27,-0.51,-0.38,-0.22,0.55
3.405,0.40,0.37,-0.50,-0.38,-0.22,0.55
3.405,0.40,0.37,-0.50,-0.40,-0.18,0.55
3.409,0.40,0.37,-0.50,-0.43,-0.16,0.55
3.409,0.49,0.43,-0.49,-0.43,-0.16,0.55
3.41,0.49,0.43,-0.49,-0.45,-0.13,0.55
3.414,0.49,0.43,-0.49,-0.47,-0.09,0.54
3.414,0.58,0.52,-0.46,-0.47,-0.09,0.54
3.417,0.58,0.52,-0.46,-0.49,-0.06,0.54
3.418,0.67,0.61,-0.44,-0.49,-0.06,0.54
3.418,0.67,0.61,-0.44,-0.51,-0.02,0.53
3.422,0.67,0.61,-0.44,-0.53,0.01,0.52
3.422,0.75,0.66,-0.41,-0.53,0.01,0.52
3.426,0.75,0.66,-0.41,-0.55,0.05,0.51
3.426,0.75,0.66,-0.41,-0.57,0.09,0.49
3.427,0.81,0.69,-0.36,-0.57,0.09,0.49
3.429,0.81,0.69,-0.36,-0.59,0.13,0.47
3.43,0.90,0.74,-0.31,-0.59,0.13,0.47
3.43,0.90,0.74,-0.31,-0.60,0.16,0.45
3.434,0.90,0.74,-0.31,-0.62,0.20,0.43
3.434,0.97,0.74,-0.24,-0.62,0.20,0.43
3.44,1.07,0.72,-0.17,-0.62,0.20,0.43
3.44,1.07,0.72,-0.17,-0.63,0.24,0.41
3.441,1.07,0.72,-0.17,-0.64,0.28,0.38
3.441,1.07,0.72,-0.17,-0.65,0.32,0.35
3.444,1.13,0.69,-0.08,-0.65,0.32,0.35
3.445,1.13,0.69,-0.08,-0.66,0.37,0.32
3.446,1.19,0.62,0.01,-0.66,0.37,0.32
3.446,1.19,0.62,0.01,-0.67,0.41,0.29
3.45,1.19,0.62,0.01,-0.67,0.45,0.26
3.45,1.24,0.50,0.10,-0.67,0.45,0.26
3.45,1.24,0.50,0.10,-0.67,0.50,0.22
3.454,1.24,0.50,0.10,-0.67,0.54,0.19
3.454,1.27,0.43,0.20,-0.67,0.54,0.19
3.457,1.27,0.43,0.20,-0.67,0.58,0.16
3.457,1.22,0.38,0.26,-0.67,0.58,0.16
3.458,1.22,0.38,0.26,-0.66,0.63,0.13
3.462,1.22,0.38,0.26,-0.66,0.67,0.10
3.462,1.15,0.25,0.37,-0.66,0.67,0.10
3.465,1.15,0.25,0.37,-0.65,0.71,0.08
3.466,1.04,0.18,0.44,-0.65,0.71,0.08
3.466,1.04,0.18,0.44,-0.64,0.75,0.05
3.47,0.90,0.12,0.51,-0.64,0.75,0.05
3.471,0.90,0.12,0.51,-0.62,0.79,0.04
3.471,0.90,0.12,0.51,-0.61,0.83,0.02
3.474,0.75,0.09,0.57,-0.61,0.83,0.02
3.475,0.75,0.09,0.57,-0.60,0.87,0.01
3.477,0.75,0.09,0.57,-0.58,0.90,-0.00
3.477,0.75,0.09,0.57,-0.56,0.93,-0.01
3.478,0.60,0.03,0.61,-0.56,0.93,-0.01
3.481,0.60,0.03,0.61,-0.55,0.96,-0.01
3.482,0.44,-0.04,0.66,-0.55,0.96,-0.01
3.485,0.44,-0.04,0.66,-0.53,0.98,-0.01
3.487,0.44,-0.04,0.66,-0.51,1.00,-0.02
3.488,0.33,-0.09,0.70,-0.51,1.00,-0.02
3.489,0.33,-0.09,0.70,-0.50,1.02,-0.02
3.49,0.24,-0.10,0.71,-0.50,1.02,-0.02
3.49,0.24,-0.10,0.71,-0.48,1.03,-0.01
3.496,0.13,-0.10,0.72,-0.48,1.03,-0.01
3.496,0.13,-0.10,0.72,-0.47,1.04,-0.01
3.497,0.13,-0.10,0.72,-0.45,1.05,-0.01
3.498,0.05,-0.11,0.71,-0.45,1.05,-0.01
3.498,0.05,-0.11,0.71,-0.44,1.05,-0.01
3.501,0.05,-0.11,0.71,-0.43,1.04,-0.00
3.502,-0.05,-0.11,0.70,-0.43,1.04,-0.00
3.505,-0.05,-0.11,0.70,-0.42,1.03,0.00
3.506,-0.05,-0.11,0.70,-0.41,1.01,0.01
3.506,-0.11,-0.11,0.68,-0.41,1.01,0.01
3.509,-0.11,-0.11,0.68,-0.41,0.99,0.02
3.51,-0.11,-0.11,0.68,-0.40,0.97,0.02
3.51,-0.17,-0.09,0.66,-0.40,0.97,0.02
3.514,-0.22,-0.08,0.64,-0.40,0.97,0.02
3.514,-0.22,-0.08,0.64,-0.40,0.94,0.03
3.517,-0.22,-0.08,0.64,-0.40,0.91,0.04
3.518,-0.27,-0.08,0.60,-0.40,0.91,0.04
3.519,-0.27,-0.08,0.60,-0.40,0.87,0.05
3.523,-0.29,-0.07,0.56,-0.40,0.87,0.05
3.524,-0.29,-0.07,0.56,-0.40,0.83,0.06
3.525,-0.29,-0.07,0.56,-0.41,0.78,0.07
3.525,-0.28,-0.07,0.52,-0.41,0.78,0.07
3.544,-0.28,-0.07,0.52,-0.41,0.73,0.08
3.544,-0.28,-0.07,0.52,-0.42,0.68,0.09
3.544,-0.28,-0.07,0.52,-0.43,0.63,0.10
3.545,-0.28,-0.06,0.51,-0.43,0.63,0.10
3.545,-0.26,-0.05,0.47,-0.43,0.63,0.10
3.545,-0.26,-0.05,0.47,-0.44,0.57,0.11
3.545,-0.23,-0.07,0.46,-0.44,0.57,0.11
3.545,-0.23,-0.07,0.46,-0.45,0.52,0.11
3.546,-0.23,-0.07,0.46,-0.47,0.45,0.12
3.546,-0.23,-0.07,0.46,-0.48,0.39,0.13
3.546,-0.17,-0.02,0.44,-0.48,0.39,0.13
3.546,-0.17,-0.02,0.44,-0.50,0.33,0.13
3.546,-0.08,0.00,0.42,-0.50,0.33,0.13
3.547,-0.08,0.00,0.42,-0.51,0.27,0.14
3.55,-0.08,0.00,0.42,-0.53,0.21,0.14
3.55,-0.02,0.04,0.43,-0.53,0.21,0.14
3.55,-0.02,0.04,0.43,-0.55,0.15,0.14
3.558,0.10,0.04,0.41,-0.55,0.15,0.14
3.559,0.10,0.04,0.41,-0.57,0.09,0.15
3.559,0.10,0.04,0.41,-0.59,0.03,0.15
3.559,0.24,0.04,0.41,-0.59,0.03,0.15
3.559,0.24,0.04,0.41,-0.60,-0.02,0.14
3.562,0.34,0.02,0.44,-0.60,-0.02,0.14
3.565,0.39,0.02,0.48,-0.60,-0.02,0.14
3.566,0.39,0.02,0.48,-0.62,-0.06,0.14
3.566,0.39,0.02,0.48,-0.64,-0.10,0.14
3.566,0.39,0.02,0.48,-0.65,-0.15,0.14
3.568,0.39,0.02,0.48,-0.67,-0.18,0.14
3.571,0.39,0.02,0.48,-0.68,-0.21,0.13
3.572,0.49,0.01,0.49,-0.68,-0.21,0.13
3.574,0.49,0.01,0.49,-0.69,-0.24,0.13
3.575,0.53,0.04,0.51,-0.69,-0.24,0.13
3.577,0.53,0.04,0.51,-0.71,-0.26,0.13
3.577,0.56,0.02,0.54,-0.71,-0.26,0.13
3.578,0.56,0.02,0.54,-0.72,-0.28,0.13
3.581,0.56,0.02,0.54,-0.73,-0.29,0.12
3.581,0.59,0.06,0.58,-0.73,-0.29,0.12
3.585,0.59,0.06,0.58,-0.74,-0.30,0.12
3.585,0.62,0.03,0.60,-0.74,-0.30,0.12
3.586,0.62,0.03,0.60,-0.75,-0.31,0.12
3.59,0.62,0.03,0.60,-0.75,-0.31,0.12
3.59,0.62,0.03,0.60,-0.76,-0.30,0.11
3.59,0.61,0.07,0.66,-0.76,-0.30,0.11
3.594,0.63,0.07,0.70,-0.76,-0.30,0.11
3.594,0.63,0.07,0.70,-0.77,-0.30,0.11
3.597,0.63,0.07,0.70,-0.78,-0.29,0.11
3.597,0.61,0.05,0.74,-0.78,-0.29,0.11
3.598,0.61,0.05,0.74,-0.78,-0.28,0.10
3.601,0.61,0.05,0.74,-0.78,-0.27,0.10
3.603,0.63,0.08,0.78,-0.78,-0.27,0.10
3.606,0.63,0.08,0.78,-0.79,-0.25,0.09
3.607,0.64,0.05,0.83,-0.79,-0.25,0.09
3.607,0.64,0.05,0.83,-0.79,-0.23,0.08
3.61,0.64,0.05,0.83,-0.79,-0.22,0.07
3.611,0.62,0.03,0.87,-0.79,-0.22,0.07
3.614,0.61,0.02,0.91,-0.79,-0.22,0.07
3.614,0.61,0.02,0.91,-0.79,-0.19,0.06
3.614,0.61,0.02,0.91,-0.79,-0.17,0.05
3.617,0.61,0.02,0.91,-0.79,-0.15,0.04
3.618,0.58,0.03,0.91,-0.79,-0.15,0.04
3.618,0.58,0.03,0.91,-0.79,-0.13,0.03
3.622,0.58,0.03,0.91,-0.79,-0.10,0.02
3.623,0.54,-0.02,0.95,-0.79,-0.10,0.02
3.625,0.54,-0.02,0.95,-0.80,-0.08,0.00
3.625,0.54,-0.02,0.95,-0.80,-0.05,-0.02
3.625,0.52,-0.06,0.98,-0.80,-0.05,-0.02
3.629,0.52,-0.06,0.98,-0.80,-0.03,-0.03
3.63,0.47,-0.10,0.99,-0.80,-0.03,-0.03
3.63,0.47,-0.10,0.99,-0.80,-0.00,-0.05
3.633,0.41,-0.13,1.01,-0.80,-0.00,-0.05
3.634,0.41,-0.13,1.01,-0.80,0.03,-0.07
3.638,0.41,-0.13,1.01,-0.80,0.06,-0.09
3.639,0.41,-0.13,1.01,-0.80,0.09,-0.11
3.639,0.36,-0.19,1.04,-0.80,0.09,-0.11
3.641,0.36,-0.19,1.04,-0.80,0.12,-0.13
3.642,0.28,-0.21,1.06,-0.80,0.12,-0.13
3.645,0.28,-0.21,1.06,-0.80,0.15,-0.15
3.646,0.18,-0.24,1.08,-0.80,0.15,-0.15
3.646,0.18,-0.24,1.08,-0.80,0.18,-0.17
3.65,0.07,-0.27,1.11,-0.80,0.18,-0.17
3.651,0.07,-0.27,1.11,-0.80,0.21,-0.19
3.651,0.07,-0.27,1.11,-0.80,0.24,-0.20
3.654,-0.03,-0.27,1.11,-0.80,0.24,-0.20
3.655,-0.03,-0.27,1.11,-0.80,0.27,-0.22
3.657,-0.03,-0.27,1.11,-0.80,0.30,-0.23
3.657,-0.15,-0.30,1.13,-0.80,0.30,-0.23
3.658,-0.15,-0.30,1.13,-0.80,0.33,-0.25
3.661,-0.15,-0.30,1.13,-0.80,0.36,-0.26
3.662,-0.25,-0.28,1.15,-0.80,0.36,-0.26
3.665,-0.25,-0.28,1.15,-0.80,0.39,-0.27
3.666,-0.38,-0.30,1.18,-0.80,0.39,-0.27
3.666,-0.38,-0.30,1.18,-0.80,0.42,-0.28
3.669,-0.38,-0.30,1.18,-0.80,0.44,-0.30
3.671,-0.42,-0.33,1.21,-0.80,0.44,-0.30
3.672,-0.42,-0.33,1.21,-0.79,0.47,-0.31
3.674,-0.54,-0.34,1.24,-0.79,0.47,-0.31
3.674,-0.54,-0.34,1.24,-0.79,0.50,-0.32
3.677,-0.54,-0.34,1.24,-0.79,0.52,-0.32
3.677,-0.54,-0.34,1.24,-0.79,0.55,-0.33
3.677,-0.65,-0.34,1.23,-0.79,0.55,-0.33
3.697,-0.65,-0.34,1.23,-0.78,0.58,-0.34
3.697,-0.75,-0.36,1.26,-0.78,0.58,-0.34
3.697,-0.75,-0.36,1.26,-0.78,0.61,-0.35
3.697,-0.82,-0.39,1.30,-0.78,0.61,-0.35
3.697,-0.82,-0.39,1.30,-0.77,0.63,-0.35
3.698,-0.82,-0.39,1.30,-0.77,0.66,-0.36
3.698,-0.82,-0.39,1.30,-0.76,0.70,-0.36
3.698,-0.91,-0.41,1.32,-0.76,0.70,-0.36
3.698,-0.99,-0.48,1.34,-0.76,0.70,-0.36
3.698,-0.99,-0.48,1.34,-0.76,0.72,-0.37
3.698,-0.99,-0.48,1.34,-0.74,0.76,-0.37
3.699,-1.08,-0.53,1.33,-0.74,0.76,-0.37
3.699,-1.08,-0.53,1.33,-0.73,0.79,-0.38
3.705,-1.08,-0.53,1.33,-0.72,0.82,-0.38
3.705,-1.13,-0.59,1.37,-0.72,0.82,-0.38
3.706,-1.13,-0.59,1.37,-0.71,0.86,-0.38
3.706,-1.22,-0.63,1.37,-0.71,0.86,-0.38
3.706,-1.22,-0.63,1.37,-0.70,0.89,-0.38
3.709,-1.22,-0.63,1.37,-0.68,0.92,-0.38
3.709,-1.22,-0.63,1.37,-0.67,0.95,-0.38
3.71,-1.25,-0.75,1.38,-0.67,0.95,-0.38
3.714,-1.25,-0.75,1.38,-0.65,0.99,-0.37
3.714,-1.32,-0.79,1.37,-0.65,0.99,-0.37
3.717,-1.32,-0.79,1.37,-0.63,1.02,-0.37
3.717,-1.38,-0.86,1.42,-0.63,1.02,-0.37
3.718,-1.38,-0.86,1.42,-0.62,1.04,-0.37
3.722,-1.38,-0.86,1.42,-0.60,1.07,-0.36
3.722,-1.46,-0.90,1.36,-0.60,1.07,-0.36
3.726,-1.46,-0.90,1.36,-0.58,1.10,-0.36
3.726,-1.50,-0.93,1.38,-0.58,1.10,-0.36
3.726,-1.50,-0.93,1.38,-0.56,1.12,-0.35
3.729,-1.50,-0.93,1.38,-0.55,1.14,-0.34
3.729,-1.50,-0.93,1.38,-0.53,1.16,-0.33
3.73,-1.57,-0.94,1.33,-0.53,1.16,-0.33
3.734,-1.62,-0.93,1.29,-0.53,1.16,-0.33
3.734,-1.62,-0.93,1.29,-0.51,1.17,-0.32
3.737,-1.62,-0.93,1.29,-0.50,1.18,-0.31
3.739,-1.62,-0.93,1.29,-0.48,1.18,-0.30
3.74,-1.69,-0.88,1.27,-0.48,1.18,-0.30
3.741,-1.69,-0.88,1.27,-0.47,1.19,-0.28
3.742,-1.75,-0.80,1.23,-0.47,1.19,-0.28
3.745,-1.75,-0.80,1.23,-0.46,1.18,-0.27
3.746,-1.79,-0.70,1.18,-0.46,1.18,-0.27
3.747,-1.79,-0.70,1.18,-0.44,1.17,-0.25
3.749,-1.79,-0.70,1.18,-0.43,1.15,-0.23
3.75,-1.81,-0.64,1.15,-0.43,1.15,-0.23
3.75,-1.81,-0.64,1.15,-0.42,1.13,-0.21
3.754,-1.81,-0.64,1.15,-0.41,1.11,-0.20
3.756,-1.74,-0.59,1.11,-0.41,1.11,-0.20
3.757,-1.74,-0.59,1.11,-0.41,1.07,-0.18
3.758,-1.64,-0.56,1.08,-0.41,1.07,-0.18
3.758,-1.64,-0.56,1.08,-0.40,1.04,-0.16
3.762,-1.64,-0.56,1.08,-0.40,1.00,-0.15
3.762,-1.52,-0.54,1.06,-0.40,1.00,-0.15
3.765,-1.52,-0.54,1.06,-0.39,0.96,-0.13
3.766,-1.52,-0.54,1.06,-0.39,0.91,-0.12
3.766,-1.35,-0.55,1.02,-0.39,0.91,-0.12
3.768,-1.35,-0.55,1.02,-0.38,0.87,-0.11
3.77,-1.21,-0.54,1.00,-0.38,0.87,-0.11
3.77,-1.21,-0.54,1.00,-0.37,0.82,-0.11
3.774,-1.04,-0.51,0.96,-0.37,0.82,-0.11
3.774,-1.04,-0.51,0.96,-0.37,0.78,-0.10
3.777,-1.04,-0.51,0.96,-0.37,0.73,-0.09
3.777,-1.04,-0.51,0.96,-0.36,0.69,-0.09
3.778,-0.97,-0.51,0.97,-0.36,0.69,-0.09
3.781,-0.97,-0.51,0.97,-0.36,0.64,-0.08
3.781,-0.86,-0.47,0.94,-0.36,0.64,-0.08
3.785,-0.86,-0.47,0.94,-0.35,0.61,-0.08
3.786,-0.86,-0.47,0.94,-0.34,0.57,-0.07
3.786,-0.82,-0.43,0.93,-0.34,0.57,-0.07
3.792,-0.82,-0.43,0.93,-0.33,0.54,-0.07
3.793,-0.82,-0.43,0.93,-0.32,0.52,-0.06
3.793,-0.77,-0.37,0.91,-0.32,0.52,-0.06
3.794,-0.77,-0.37,0.91,-0.31,0.49,-0.06
3.794,-0.70,-0.36,0.89,-0.31,0.49,-0.06
3.797,-0.70,-0.36,0.89,-0.29,0.47,-0.05
3.797,-0.70,-0.36,0.89,-0.28,0.46,-0.05
3.798,-0.65,-0.36,0.88,-0.28,0.46,-0.05
3.801,-0.65,-0.36,0.88,-0.27,0.44,-0.04
3.802,-0.58,-0.36,0.86,-0.27,0.44,-0.04
3.806,-0.58,-0.36,0.86,-0.25,0.44,-0.04
3.807,-0.46,-0.39,0.83,-0.25,0.44,-0.04
3.807,-0.46,-0.39,0.83,-0.24,0.43,-0.03
3.81,-0.46,-0.39,0.83,-0.22,0.42,-0.03
3.811,-0.38,-0.38,0.81,-0.22,0.42,-0.03
3.811,-0.38,-0.38,0.81,-0.21,0.42,-0.02
3.814,-0.38,-0.38,0.81,-0.19,0.41,-0.02
3.814,-0.27,-0.40,0.76,-0.19,0.41,-0.02
3.817,-0.27,-0.40,0.76,-0.18,0.41,-0.02
3.818,-0.18,-0.44,0.73,-0.18,0.41,-0.02
3.818,-0.18,-0.44,0.73,-0.17,0.41,-0.01
3.823,-0.08,-0.45,0.67,-0.17,0.41,-0.01
3.823,-0.08,-0.45,0.67,-0.16,0.41,-0.01
3.825,-0.08,-0.45,0.67,-0.14,0.42,-0.01
3.825,-0.08,-0.45,0.67,-0.13,0.42,-0.01
3.825,0.00,-0.45,0.64,-0.13,0.42,-0.01
3.829,0.00,-0.45,0.64,-0.12,0.42,-0.01
3.83,0.00,-0.45,0.64,-0.11,0.42,-0.01
3.83,0.10,-0.45,0.58,-0.11,0.42,-0.01
3.834,0.22,-0.49,0.52,-0.11,0.42,-0.01
3.855,0.22,-0.49,0.52,-0.10,0.43,-0.01
3.855,0.22,-0.49,0.52,-0.09,0.43,-0.01
3.855,0.22,-0.49,0.52,-0.09,0.43,-0.01
3.855,0.31,-0.51,0.45,-0.09,0.43,-0.01
3.856,0.31,-0.51,0.45,-0.08,0.44,-0.02
3.856,0.38,-0.52,0.40,-0.08,0.44,-0.02
3.856,0.38,-0.52,0.40,-0.08,0.44,-0.02
3.856,0.38,-0.52,0.40,-0.07,0.45,-0.02
3.856,0.48,-0.52,0.31,-0.07,0.45,-0.02
3.857,0.48,-0.52,0.31,-0.07,0.45,-0.03
3.857,0.48,-0.52,0.31,-0.07,0.46,-0.04
3.857,0.57,-0.58,0.24,-0.07,0.46,-0.04
3.857,0.62,-0.61,0.18,-0.07,0.46,-0.04
3.857,0.62,-0.61,0.18,-0.07,0.46,-0.04
3.857,0.62,-0.61,0.18,-0.08,0.47,-0.05
3.857,0.69,-0.61,0.11,-0.08,0.47,-0.05
3.858,0.69,-0.61,0.11,-0.08,0.48,-0.06
3.863,0.74,-0.57,0.05,-0.08,0.48,-0.06
3.863,0.74,-0.57,0.05,-0.09,0.48,-0.07
3.865,0.74,-0.57,0.05,-0.09,0.49,-0.08
3.866,0.74,-0.57,0.05,-0.10,0.49,-0.09
3.866,0.77,-0.58,-0.01,-0.10,0.49,-0.09
3.87,0.77,-0.58,-0.01,-0.11,0.50,-0.10
3.87,0.85,-0.60,-0.10,-0.11,0.50,-0.10
3.87,0.85,-0.60,-0.10,-0.12,0.51,-0.12
3.874,0.91,-0.62,-0.13,-0.12,0.51,-0.12
3.874,0.91,-0.62,-0.13,-0.13,0.52,-0.14
3.877,0.91,-0.62,-0.13,-0.14,0.53,-0.15
3.878,0.91,-0.62,-0.13,-0.15,0.53,-0.17
3.878,0.96,-0.63,-0.16,-0.15,0.53,-0.17
3.881,0.96,-0.63,-0.16,-0.16,0.54,-0.18
3.882,1.00,-0.66,-0.20,-0.16,0.54,-0.18
3.885,1.00,-0.66,-0.20,-0.17,0.55,-0.20
3.886,0.98,-0.67,-0.23,-0.17,0.55,-0.20
3.886,0.98,-0.67,-0.23,-0.19,0.56,-0.22
3.892,0.98,-0.67,-0.23,-0.20,0.57,-0.23
3.893,0.97,-0.71,-0.28,-0.20,0.57,-0.23
3.893,0.97,-0.71,-0.28,-0.21,0.57,-0.25
3.896,0.92,-0.71,-0.33,-0.21,0.57,-0.25
3.896,0.92,-0.71,-0.33,-0.23,0.58,-0.26
3.897,0.92,-0.71,-0.33,-0.24,0.59,-0.27
3.898,0.88,-0.70,-0.36,-0.24,0.59,-0.27
3.898,0.88,-0.70,-0.36,-0.26,0.59,-0.28
3.901,0.88,-0.70,-0.36,-0.28,0.59,-0.29
3.902,0.78,-0.69,-0.38,-0.28,0.59,-0.29
3.908,0.75,-0.65,-0.38,-0.28,0.59,-0.29
3.908,0.75,-0.65,-0.38,-0.30,0.59,-0.30
3.909,0.75,-0.65,-0.38,-0.32,0.59,-0.31
3.909,0.75,-0.65,-0.38,-0.34,0.58,-0.31
3.91,0.64,-0.64,-0.41,-0.34,0.58,-0.31
3.91,0.64,-0.64,-0.41,-0.36,0.57,-0.32
3.915,0.64,-0.66,-0.41,-0.36,0.57,-0.32
3.915,0.64,-0.66,-0.41,-0.38,0.56,-0.32
3.917,0.64,-0.66,-0.41,-0.40,0.55,-0.33
3.918,0.64,-0.66,-0.41,-0.42,0.54,-0.34
3.918,0.63,-0.74,-0.37,-0.42,0.54,-0.34
3.921,0.63,-0.74,-0.37,-0.44,0.52,-0.35
3.922,0.69,-0.83,-0.34,-0.44,0.52,-0.35
3.925,0.69,-0.83,-0.34,-0.46,0.50,-0.36
3.926,0.69,-0.83,-0.34,-0.48,0.48,-0.37
3.926,0.75,-0.99,-0.26,-0.48,0.48,-0.37
3.929,0.75,-0.99,-0.26,-0.50,0.46,-0.39
3.93,0.75,-0.99,-0.26,-0.51,0.45,-0.41
3.93,0.76,-1.14,-0.18,-0.51,0.45,-0.41
3.934,0.78,-1.31,-0.09,-0.51,0.45,-0.41
3.934,0.78,-1.31,-0.09,-0.52,0.43,-0.43
3.938,0.78,-1.31,-0.09,-0.53,0.42,-0.45
3.938,0.74,-1.47,0.05,-0.53,0.42,-0.45
3.939,0.74,-1.47,0.05,-0.54,0.41,-0.47
3.941,0.74,-1.47,0.05,-0.54,0.40,-0.50
3.942,0.65,-1.65,0.19,-0.54,0.40,-0.50
3.945,0.65,-1.65,0.19,-0.53,0.40,-0.52
3.946,0.65,-1.65,0.19,-0.53,0.40,-0.54
3.946,0.51,-1.82,0.33,-0.53,0.40,-0.54
3.949,0.51,-1.82,0.33,-0.52,0.40,-0.56
3.95,0.35,-2.01,0.46,-0.52,0.40,-0.56
3.95,0.35,-2.01,0.46,-0.50,0.42,-0.58
3.954,0.35,-2.01,0.46,-0.49,0.43,-0.59
3.954,0.19,-2.19,0.58,-0.49,0.43,-0.59
3.957,0.19,-2.19,0.58,-0.46,0.44,-0.60
3.958,0.19,-2.19,0.58,-0.44,0.46,-0.62
3.958,0.03,-2.34,0.68,-0.44,0.46,-0.62
3.961,0.03,-2.34,0.68,-0.41,0.47,-0.63
3.962,-0.15,-2.50,0.81,-0.41,0.47,-0.63
3.965,-0.15,-2.50,0.81,-0.38,0.49,-0.63
3.965,-0.15,-2.50,0.81,-0.35,0.51,-0.64
3.965,-0.33,-2.63,0.90,-0.35,0.51,-0.64
3.968,-0.33,-2.63,0.90,-0.31,0.53,-0.64
3.97,-0.50,-2.76,0.97,-0.31,0.53,-0.64
3.97,-0.50,-2.76,0.97,-0.28,0.55,-0.65
3.975,-0.72,-2.83,1.00,-0.28,0.55,-0.65
3.976,-0.72,-2.83,1.00,-0.24,0.56,-0.65
3.978,-0.72,-2.83,1.00,-0.20,0.57,-0.64
3.978,-0.92,-2.94,1.08,-0.20,0.57,-0.64
3.978,-0.92,-2.94,1.08,-0.16,0.58,-0.64
3.982,-0.92,-2.94,1.08,-0.11,0.58,-0.63
3.982,-1.12,-2.99,1.13,-0.11,0.58,-0.63
3.986,-1.12,-2.99,1.13,-0.07,0.58,-0.62
3.986,-1.12,-2.99,1.13,-0.03,0.58,-0.61
3.986,-1.31,-3.08,1.11,-0.03,0.58,-0.61
4.008,-1.31,-3.08,1.11,0.01,0.57,-0.59
4.008,-1.31,-3.08,1.11,0.05,0.55,-0.57
4.009,-1.45,-3.17,1.11,0.05,0.55,-0.57
4.009,-1.66,-3.22,1.09,0.05,0.55,-0.57
4.01,-1.66,-3.22,1.09,0.09,0.53,-0.56
4.01,-1.66,-3.22,1.09,0.13,0.50,-0.54
4.011,-1.84,-3.27,1.08,0.13,0.50,-0.54
4.011,-1.84,-3.27,1.08,0.16,0.47,-0.51
4.011,-1.84,-3.27,1.08,0.20,0.43,-0.49
4.012,-1.96,-3.32,1.03,0.20,0.43,-0.49
4.012,-1.96,-3.32,1.03,0.24,0.38,-0.46
4.013,-1.96,-3.32,1.03,0.27,0.33,-0.44
4.013,-2.10,-3.31,0.99,0.27,0.33,-0.44
4.013,-2.10,-3.31,0.99,0.29,0.27,-0.41
4.014,-2.26,-3.28,0.93,0.29,0.27,-0.41
4.014,-2.26,-3.28,0.93,0.32,0.21,-0.38
4.014,-2.38,-3.20,0.87,0.32,0.21,-0.38
4.015,-2.38,-3.20,0.87,0.34,0.13,-0.36
4.017,-2.38,-3.20,0.87,0.36,0.06,-0.33
4.018,-2.38,-3.20,0.87,0.37,-0.03,-0.30
4.018,-2.45,-3.05,0.80,0.37,-0.03,-0.30
4.021,-2.45,-3.05,0.80,0.38,-0.11,-0.28
4.024,-2.48,-2.86,0.74,0.38,-0.11,-0.28
4.027,-2.56,-2.60,0.65,0.38,-0.11,-0.28
4.028,-2.56,-2.60,0.65,0.39,-0.21,-0.25
4.028,-2.56,-2.60,0.65,0.39,-0.31,-0.23
4.029,-2.56,-2.60,0.65,0.40,-0.41,-0.21
4.029,-2.57,-2.31,0.58,0.40,-0.41,-0.21
4.03,-2.57,-2.31,0.58,0.39,-0.51,-0.19
4.034,-2.59,-1.98,0.53,0.39,-0.51,-0.19
4.034,-2.59,-1.98,0.53,0.38,-0.63,-0.17
4.038,-2.59,-1.98,0.53,0.38,-0.74,-0.15
4.038,-2.59,-1.98,0.53,0.37,-0.85,-0.13
4.038,-2.56,-1.58,0.51,0.37,-0.85,-0.13
4.041,-2.56,-1.58,0.51,0.35,-0.95,-0.11
4.041,-2.54,-1.23,0.50,0.35,-0.95,-0.11
4.046,-2.54,-1.23,0.50,0.34,-1.06,-0.10
4.047,-2.54,-1.23,0.50,0.33,-1.16,-0.08
4.047,-2.49,-0.87,0.52,0.33,-1.16,-0.08
4.049,-2.49,-0.87,0.52,0.32,-1.25,-0.07
4.05,-2.49,-0.87,0.52,0.30,-1.34,-0.05
4.05,-2.46,-0.50,0.54,0.30,-1.34,-0.05
4.054,-2.46,-0.50,0.54,0.29,-1.43,-0.03
4.054,-2.42,-0.13,0.59,0.29,-1.43,-0.03
4.058,-2.43,0.18,0.66,0.29,-1.43,-0.03
4.061,-2.43,0.18,0.66,0.28,-1.51,-0.01
4.061,-2.43,0.18,0.66,0.27,-1.58,0.00
4.061,-2.43,0.18,0.66,0.26,-1.64,0.02
4.061,-2.38,0.51,0.75,0.26,-1.64,0.02
4.066,-2.38,0.51,0.75,0.26,-1.70,0.03
4.066,-2.35,0.74,0.85,0.26,-1.70,0.03
4.066,-2.35,0.74,0.85,0.26,-1.75,0.05
4.069,-2.35,0.74,0.85,0.25,-1.80,0.06
4.069,-2.26,0.98,0.97,0.25,-1.80,0.06
4.07,-2.26,0.98,0.97,0.26,-1.84,0.07
4.074,-2.17,1.14,1.09,0.26,-1.84,0.07
4.074,-2.17,1.14,1.09,0.26,-1.87,0.08
4.077,-2.17,1.14,1.09,0.26,-1.90,0.09
4.078,-2.06,1.25,1.18,0.26,-1.90,0.09
4.078,-2.06,1.25,1.18,0.27,-1.92,0.10
4.082,-2.06,1.25,1.18,0.28,-1.93,0.11
4.082,-1.92,1.32,1.27,0.28,-1.93,0.11
4.086,-1.92,1.32,1.27,0.30,-1.94,0.11
4.086,-1.92,1.32,1.27,0.31,-1.94,0.12
4.087,-1.78,1.36,1.38,0.31,-1.94,0.12
4.091,-1.62,1.36,1.47,0.31,-1.94,0.12
4.091,-1.62,1.36,1.47,0.32,-1.93,0.12
4.091,-1.62,1.36,1.47,0.34,-1.92,0.12
4.094,-1.48,1.31,1.56,0.34,-1.92,0.12
4.094,-1.48,1.31,1.56,0.36,-1.90,0.13
4.097,-1.48,1.31,1.56,0.39,-1.88,0.13
4.098,-1.32,1.22,1.69,0.39,-1.88,0.13
4.098,-1.32,1.22,1.69,0.41,-1.84,0.13
4.101,-1.32,1.22,1.69,0.44,-1.80,0.13
4.102,-1.14,1.06,1.81,0.44,-1.80,0.13
4.105,-1.14,1.06,1.81,0.47,-1.76,0.13
4.107,-1.14,1.06,1.81,0.50,-1.70,0.13
4.108,-1.02,0.89,1.92,0.50,-1.70,0.13
4.109,-1.02,0.89,1.92,0.53,-1.65,0.13
4.11,-0.82,0.67,2.02,0.53,-1.65,0.13
4.11,-0.82,0.67,2.02,0.57,-1.58,0.13
4.114,-0.65,0.48,2.10,0.57,-1.58,0.13
4.114,-0.65,0.48,2.10,0.60,-1.52,0.13
4.117,-0.65,0.48,2.10,0.64,-1.46,0.13
4.117,-0.65,0.48,2.10,0.68,-1.39,0.13
4.117,-0.50,0.28,2.14,0.68,-1.39,0.13
4.121,-0.50,0.28,2.14,0.71,-1.33,0.13
4.122,-0.32,0.12,2.22,0.71,-1.33,0.13
4.126,-0.32,0.12,2.22,0.75,-1.27,0.13
4.126,-0.32,0.12,2.22,0.79,-1.22,0.13
4.126,-0.15,-0.09,2.29,0.79,-1.22,0.13
4.13,-0.15,-0.09,2.29,0.83,-1.18,0.13
4.13,0.01,-0.25,2.36,0.83,-1.18,0.13
4.13,0.01,-0.25,2.36,0.86,-1.14,0.13
4.134,0.14,-0.38,2.48,0.86,-1.14,0.13
4.134,0.14,-0.38,2.48,0.90,-1.11,0.14
4.137,0.14,-0.38,2.48,0.93,-1.09,0.14
4.138,0.29,-0.50,2.62,0.93,-1.09,0.14
4.138,0.29,-0.50,2.62,0.97,-1.08,0.14
4.143,0.29,-0.50,2.62,1.01,-1.08,0.15
4.162,0.45,-0.58,2.79,1.01,-1.08,0.15
4.163,0.57,-0.64,2.94,1.01,-1.08,0.15
4.163,0.57,-0.64,2.94,1.05,-1.08,0.15
4.163,0.57,-0.64,2.94,1.09,-1.09,0.16
4.163,0.57,-0.64,2.94,1.12,-1.09,0.17
4.164,0.69,-0.67,3.08,1.12,-1.09,0.17
4.164,0.69,-0.67,3.08,1.16,-1.10,0.18
4.164,0.69,-0.67,3.08,1.21,-1.10,0.19
4.164,0.80,-0.68,3.20,1.21,-1.10,0.19
4.165,0.80,-0.68,3.20,1.25,-1.09,0.19
4.165,0.91,-0.66,3.29,1.25,-1.09,0.19
4.165,0.91,-0.66,3.29,1.31,-1.08,0.21
4.165,0.91,-0.66,3.29,1.36,-1.05,0.21
4.166,0.91,-0.58,3.38,1.36,-1.05,0.21
4.166,0.91,-0.58,3.38,1.42,-1.01,0.22
4.166,0.91,-0.58,3.38,1.48,-0.96,0.23
4.166,0.97,-0.54,3.40,1.48,-0.96,0.23
4.167,0.97,-0.54,3.40,1.54,-0.90,0.24
4.17,1.05,-0.48,3.35,1.54,-0.90,0.24
4.17,1.05,-0.48,3.35,1.60,-0.82,0.25
4.176,1.14,-0.35,3.21,1.60,-0.82,0.25
4.176,1.14,-0.35,3.21,1.67,-0.73,0.26
4.177,1.14,-0.35,3.21,1.73,-0.63,0.26
4.181,1.20,-0.19,2.95,1.73,-0.63,0.26
4.184,1.26,-0.09,2.62,1.73,-0.63,0.26
4.186,1.26,-0.09,2.62,1.79,-0.53,0.26
4.187,1.26,-0.09,2.62,1.85,-0.41,0.27
4.187,1.26,-0.09,2.62,1.90,-0.29,0.27
4.187,1.33,0.05,2.23,1.90,-0.29,0.27
4.193,1.33,0.05,2.23,1.96,-0.16,0.27
4.194,1.33,0.05,2.23,2.01,-0.03,0.27
4.194,1.39,0.14,1.82,2.01,-0.03,0.27
4.199,1.39,0.14,1.82,2.05,0.11,0.26
4.2,1.39,0.14,1.82,2.09,0.24,0.25
4.2,1.39,0.14,1.82,2.13,0.37,0.24
4.2,1.52,0.21,1.39,2.13,0.37,0.24
4.2,1.64,0.24,0.96,2.13,0.37,0.24
4.2,1.64,0.24,0.96,2.16,0.51,0.22
4.2,1.64,0.24,0.96,2.19,0.64,0.20
4.203,1.80,0.22,0.51,2.19,0.64,0.20
4.204,1.80,0.22,0.51,2.21,0.76,0.18
4.208,1.93,0.19,0.07,2.21,0.76,0.18
4.208,1.93,0.19,0.07,2.23,0.89,0.16
4.209,1.93,0.19,0.07,2.24,1.01,0.13
4.211,2.07,0.18,-0.42,2.24,1.01,0.13
4.211,2.07,0.18,-0.42,2.24,1.13,0.10
4.215,2.21,0.12,-0.86,2.24,1.13,0.10
4.215,2.21,0.12,-0.86,2.25,1.24,0.06
4.215,2.21,0.12,-0.86,2.24,1.34,0.03
4.219,2.21,0.12,-0.86,2.23,1.44,-0.01
4.22,2.32,0.05,-1.30,2.23,1.44,-0.01
4.22,2.32,0.05,-1.30,2.21,1.54,-0.05
4.224,2.32,0.05,-1.30,2.19,1.63,-0.09
4.224,2.43,-0.06,-1.69,2.19,1.63,-0.09
4.228,2.51,-0.17,-2.07,2.19,1.63,-0.09
4.228,2.51,-0.17,-2.07,2.17,1.72,-0.13
4.228,2.51,-0.17,-2.07,2.14,1.80,-0.16
4.231,2.56,-0.31,-2.38,2.14,1.80,-0.16
4.231,2.56,-0.31,-2.38,2.11,1.88,-0.20
4.235,2.56,-0.31,-2.38,2.08,1.95,-0.24
4.235,2.60,-0.39,-2.66,2.08,1.95,-0.24
4.235,2.60,-0.39,-2.66,2.04,2.01,-0.27
4.239,2.60,-0.39,-2.66,2.00,2.07,-0.30
4.239,2.57,-0.46,-2.92,2.00,2.07,-0.30
4.239,2.57,-0.46,-2.92,1.96,2.12,-0.33
4.243,2.47,-0.51,-3.11,1.96,2.12,-0.33
4.243,2.47,-0.51,-3.11,1.92,2.16,-0.35
4.247,2.31,-0.56,-3.29,1.92,2.16,-0.35
4.247,2.31,-0.56,-3.29,1.87,2.19,-0.37
4.247,2.31,-0.56,-3.29,1.83,2.20,-0.39
4.251,2.31,-0.56,-3.29,1.78,2.21,-0.40
4.251,2.11,-0.52,-3.39,1.78,2.21,-0.40
4.255,1.89,-0.49,-3.53,1.78,2.21,-0.40
4.255,1.89,-0.49,-3.53,1.73,2.20,-0.41
4.255,1.89,-0.49,-3.53,1.68,2.18,-0.41
4.26,1.63,-0.44,-3.60,1.68,2.18,-0.41
4.26,1.63,-0.44,-3.60,1.62,2.15,-0.42
4.26,1.63,-0.44,-3.60,1.57,2.12,-0.41
4.264,1.37,-0.36,-3.62,1.57,2.12,-0.41
4.264,1.37,-0.36,-3.62,1.51,2.07,-0.41
4.267,1.37,-0.36,-3.62,1.46,2.01,-0.40
4.267,1.37,-0.36,-3.62,1.40,1.94,-0.39
4.268,1.14,-0.27,-3.63,1.40,1.94,-0.39
4.271,1.14,-0.27,-3.63,1.35,1.87,-0.38
4.271,0.94,-0.20,-3.65,1.35,1.87,-0.38
4.276,0.70,-0.13,-3.65,1.35,1.87,-0.38
4.276,0.70,-0.13,-3.65,1.29,1.79,-0.36
4.276,0.70,-0.13,-3.65,1.24,1.72,-0.35
4.28,0.51,-0.03,-3.64,1.24,1.72,-0.35
4.28,0.51,-0.03,-3.64,1.19,1.64,-0.34
4.28,0.51,-0.03,-3.64,1.14,1.57,-0.32
4.284,0.51,-0.03,-3.64,1.09,1.50,-0.31
4.284,0.36,0.02,-3.61,1.09,1.50,-0.31
4.287,0.36,0.02,-3.61,1.04,1.43,-0.30
4.287,0.26,0.02,-3.54,1.04,1.43,-0.30
4.287,0.26,0.02,-3.54,0.99,1.36,-0.29
4.291,0.26,0.02,-3.54,0.95,1.28,-0.28
4.291,0.14,0.05,-3.47,0.95,1.28,-0.28
4.296,0.14,0.05,-3.47,0.91,1.21,-0.27
4.296,0.10,0.06,-3.42,0.91,1.21,-0.27
4.308,0.10,0.06,-3.42,0.87,1.14,-0.26
4.308,0.12,0.02,-3.34,0.87,1.14,-0.26
4.309,0.12,0.02,-3.34,0.83,1.07,-0.26
4.309,0.12,0.02,-3.34,0.80,1.00,-0.26
4.309,0.12,0.02,-3.34,0.77,0.93,-0.25
4.31,0.10,0.02,-3.24,0.77,0.93,-0.25
4.31,0.09,-0.02,-3.17,0.77,0.93,-0.25
4.31,0.09,-0.02,-3.17,0.74,0.87,-0.25
4.31,0.09,-0.02,-3.17,0.71,0.81,-0.25
4.312,0.09,-0.02,-3.17,0.68,0.74,-0.25
4.313,0.06,-0.04,-3.08,0.68,0.74,-0.25
4.315,0.03,-0.07,-3.00,0.68,0.74,-0.25
4.315,0.03,-0.07,-3.00,0.66,0.68,-0.24
4.315,0.03,-0.07,-3.00,0.63,0.62,-0.24
4.319,-0.01,-0.08,-2.96,0.63,0.62,-0.24
4.319,-0.01,-0.08,-2.96,0.61,0.56,-0.23
4.319,-0.01,-0.08,-2.96,0.58,0.50,-0.22
4.324,-0.01,-0.08,-2.96,0.56,0.44,-0.22
4.324,-0.05,-0.07,-2.87,0.56,0.44,-0.22
4.328,-0.06,-0.14,-2.79,0.56,0.44,-0.22
4.328,-0.06,-0.14,-2.79,0.54,0.38,-0.21
4.329,-0.06,-0.14,-2.79,0.52,0.32,-0.20
4.331,-0.06,-0.19,-2.69,0.52,0.32,-0.20
4.331,-0.06,-0.19,-2.69,0.50,0.26,-0.19
4.335,-0.02,-0.25,-2.59,0.50,0.26,-0.19
4.335,-0.02,-0.25,-2.59,0.48,0.20,-0.18
4.335,-0.02,-0.25,-2.59,0.46,0.15,-0.17
4.339,-0.02,-0.25,-2.59,0.45,0.09,-0.16
4.339,-0.02,-0.25,-2.59,0.43,0.04,-0.15
4.339,0.03,-0.30,-2.50,0.43,0.04,-0.15
4.345,0.05,-0.33,-2.41,0.43,0.04,-0.15
4.346,0.05,-0.33,-2.41,0.42,-0.01,-0.15
4.348,0.07,-0.38,-2.29,0.42,-0.01,-0.15
4.348,0.07,-0.38,-2.29,0.41,-0.06,-0.13
4.348,0.07,-0.38,-2.29,0.40,-0.11,-0.12
4.351,0.07,-0.38,-2.29,0.39,-0.16,-0.11
4.351,0.07,-0.41,-2.15,0.39,-0.16,-0.11
4.355,0.06,-0.43,-1.98,0.39,-0.16,-0.11
4.355,0.06,-0.43,-1.98,0.39,-0.20,-0.09
4.355,0.06,-0.43,-1.98,0.38,-0.24,-0.08
4.359,0.11,-0.50,-1.84,0.38,-0.24,-0.08
4.359,0.11,-0.50,-1.84,0.38,-0.28,-0.07
4.36,0.11,-0.50,-1.84,0.38,-0.32,-0.05
4.363,0.13,-0.52,-1.63,0.38,-0.32,-0.05
4.364,0.13,-0.52,-1.63,0.39,-0.35,-0.04
4.366,0.17,-0.52,-1.45,0.39,-0.35,-0.04
4.366,0.17,-0.52,-1.45,0.40,-0.37,-0.02
4.367,0.17,-0.52,-1.45,0.40,-0.39,-0.00
4.369,0.22,-0.56,-1.28,0.40,-0.39,-0.00
4.37,0.22,-0.56,-1.28,0.42,-0.41,0.01
4.375,0.28,-0.58,-1.12,0.42,-0.41,0.01
4.376,0.28,-0.58,-1.12,0.43,-0.42,0.02
4.376,0.28,-0.58,-1.12,0.45,-0.43,0.04
4.38,0.28,-0.58,-1.12,0.47,-0.43,0.05
4.381,0.28,-0.58,-1.12,0.49,-0.43,0.07
4.381,0.29,-0.54,-0.95,0.49,-0.43,0.07
4.383,0.36,-0.54,-0.79,0.49,-0.43,0.07
4.384,0.36,-0.54,-0.79,0.52,-0.42,0.08
4.387,0.38,-0.51,-0.65,0.52,-0.42,0.08
4.387,0.38,-0.51,-0.65,0.55,-0.40,0.10
4.388,0.38,-0.51,-0.65,0.58,-0.38,0.11
4.395,0.39,-0.47,-0.56,0.58,-0.38,0.11
4.395,0.39,-0.47,-0.56,0.61,-0.36,0.12
4.396,0.39,-0.47,-0.56,0.64,-0.33,0.14
4.396,0.38,-0.41,-0.54,0.64,-0.33,0.14
4.396,0.38,-0.41,-0.54,0.68,-0.29,0.15
4.4,0.35,-0.29,-0.56,0.68,-0.29,0.15
4.4,0.35,-0.29,-0.56,0.71,-0.26,0.16
4.4,0.35,-0.29,-0.56,0.75,-0.22,0.18
4.403,0.35,-0.29,-0.56,0.78,-0.18,0.19
4.404,0.37,-0.19,-0.61,0.78,-0.18,0.19
4.407,0.37,-0.19,-0.61,0.81,-0.13,0.20
4.407,0.41,-0.09,-0.71,0.81,-0.13,0.20
4.407,0.41,-0.09,-0.71,0.84,-0.09,0.21
4.411,0.42,-0.06,-0.84,0.84,-0.09,0.21
4.411,0.42,-0.06,-0.84,0.87,-0.04,0.22
4.416,0.44,0.01,-1.01,0.87,-0.04,0.22
4.416,0.44,0.01,-1.01,0.90,0.01,0.22
4.416,0.44,0.01,-1.01,0.92,0.06,0.23
4.419,0.44,0.01,-1.01,0.94,0.11,0.24
4.419,0.50,0.09,-1.25,0.94,0.11,0.24
4.42,0.50,0.09,-1.25,0.96,0.15,0.24
4.425,0.58,0.17,-1.51,0.96,0.15,0.24
4.426,0.58,0.17,-1.51,0.98,0.19,0.24
4.427,0.68,0.27,-1.78,0.98,0.19,0.24
4.428,0.68,0.27,-1.78,0.99,0.23,0.24
4.428,0.68,0.27,-1.78,1.00,0.26,0.25
4.431,0.68,0.27,-1.78,1.01,0.28,0.25
4.432,0.78,0.40,-2.05,1.01,0.28,0.25
4.435,0.83,0.48,-2.36,1.01,0.28,0.25
4.436,0.83,0.48,-2.36,1.01,0.30,0.24
4.436,0.83,0.48,-2.36,1.01,0.32,0.24
4.439,0.83,0.48,-2.36,1.01,0.33,0.24
4.44,0.92,0.62,-2.63,1.01,0.33,0.24
4.44,0.92,0.62,-2.63,1.01,0.33,0.24
4.444,0.92,0.62,-2.63,1.00,0.34,0.23
4.445,0.96,0.78,-2.91,1.00,0.34,0.23
4.447,0.96,0.78,-2.91,1.00,0.34,0.23
4.448,0.96,0.99,-3.16,1.00,0.34,0.23
4.448,0.96,0.99,-3.16,0.99,0.34,0.23
4.469,1.03,1.15,-3.43,0.99,0.34,0.23
4.47,1.03,1.15,-3.43,0.98,0.33,0.22
4.47,1.03,1.15,-3.43,0.97,0.32,0.22
4.47,1.03,1.15,-3.43,0.96,0.30,0.21
4.47,1.03,1.33,-3.65,0.96,0.30,0.21
4.471,1.03,1.33,-3.65,0.95,0.28,0.21
4.471,1.03,1.56,-3.83,0.95,0.28,0.21
4.471,1.03,1.56,-3.83,0.94,0.25,0.20
4.471,1.00,1.76,-4.02,0.94,0.25,0.20
4.472,1.00,1.76,-4.02,0.92,0.22,0.19
4.472,1.00,1.76,-4.02,0.91,0.19,0.19
4.472,1.00,1.76,-4.02,0.89,0.16,0.18
4.472,0.98,1.91,-4.16,0.89,0.16,0.18
4.473,0.96,2.10,-4.27,0.89,0.16,0.18
4.473,0.96,2.10,-4.27,0.88,0.12,0.17
4.483,0.96,2.10,-4.27,0.87,0.07,0.16
4.484,0.96,2.10,-4.27,0.85,0.03,0.15
4.484,0.91,2.31,-4.32,0.85,0.03,0.15
4.484,0.91,2.31,-4.32,0.84,-0.02,0.13
4.484,0.91,2.31,-4.32,0.83,-0.07,0.12
4.485,0.83,2.46,-4.37,0.83,-0.07,0.12
4.485,0.77,2.70,-4.40,0.83,-0.07,0.12
4.485,0.77,2.70,-4.40,0.82,-0.13,0.11
4.488,0.77,2.70,-4.40,0.81,-0.19,0.10
4.488,0.77,2.70,-4.40,0.80,-0.25,0.09
4.488,0.63,2.83,-4.43,0.80,-0.25,0.09
4.491,0.63,2.83,-4.43,0.79,-0.31,0.08
4.494,0.49,2.98,-4.42,0.79,-0.31,0.08
4.495,0.37,3.12,-4.47,0.79,-0.31,0.08
4.495,0.37,3.12,-4.47,0.78,-0.38,0.07
4.495,0.37,3.12,-4.47,0.77,-0.44,0.07
4.499,0.37,3.12,-4.47,0.76,-0.50,0.06
4.499,0.37,3.12,-4.47,0.74,-0.56,0.06
4.5,0.25,3.23,-4.48,0.74,-0.56,0.06
4.503,0.25,3.23,-4.48,0.73,-0.62,0.05
4.504,0.08,3.31,-4.54,0.73,-0.62,0.05
4.507,0.08,3.31,-4.54,0.72,-0.66,0.05
4.507,0.08,3.31,-4.54,0.70,-0.71,0.05
4.507,-0.06,3.36,-4.59,0.70,-0.71,0.05
4.511,-0.06,3.36,-4.59,0.68,-0.74,0.06
4.511,-0.24,3.40,-4.66,0.68,-0.74,0.06
4.515,-0.35,3.42,-4.72,0.68,-0.74,0.06
4.515,-0.35,3.42,-4.72,0.66,-0.77,0.06
4.515,-0.35,3.42,-4.72,0.64,-0.79,0.07
4.519,-0.35,3.42,-4.72,0.62,-0.80,0.07
4.519,-0.44,3.41,-4.78,0.62,-0.80,0.07
4.519,-0.44,3.41,-4.78,0.60,-0.81,0.07
4.523,-0.52,3.37,-4.83,0.60,-0.81,0.07
4.523,-0.52,3.37,-4.83,0.57,-0.82,0.08
4.528,-0.52,3.37,-4.83,0.54,-0.81,0.09
4.528,-0.52,3.37,-4.83,0.52,-0.81,0.10
4.528,-0.59,3.31,-4.84,0.52,-0.81,0.10
4.531,-0.59,3.31,-4.84,0.49,-0.81,0.10
4.531,-0.66,3.21,-4.86,0.49,-0.81,0.10
4.535,-0.72,3.08,-4.86,0.49,-0.81,0.10
4.535,-0.72,3.08,-4.86,0.45,-0.81,0.11
4.536,-0.72,3.08,-4.86,0.41,-0.81,0.11
4.539,-0.72,2.91,-4.85,0.41,-0.81,0.11
4.539,-0.72,2.91,-4.85,0.37,-0.82,0.12
4.539,-0.72,2.91,-4.85,0.33,-0.84,0.12
4.543,-0.69,2.74,-4.83,0.33,-0.84,0.12
4.546,-0.69,2.74,-4.83,0.28,-0.85,0.12
4.546,-0.68,2.52,-4.82,0.28,-0.85,0.12
4.547,-0.68,2.52,-4.82,0.23,-0.88,0.12
4.547,-0.68,2.52,-4.82,0.18,-0.92,0.12
4.551,-0.60,2.32,-4.79,0.18,-0.92,0.12
4.551,-0.60,2.32,-4.79,0.11,-0.96,0.11
4.555,-0.54,2.03,-4.73,0.11,-0.96,0.11
4.555,-0.54,2.03,-4.73,0.05,-1.01,0.11
4.555,-0.54,2.03,-4.73,-0.02,-1.06,0.11
4.559,-0.55,1.77,-4.65,-0.02,-1.06,0.11
4.56,-0.55,1.77,-4.65,-0.09,-1.12,0.10
4.56,-0.55,1.77,-4.65,-0.15,-1.18,0.10
4.563,-0.57,1.58,-4.55,-0.15,-1.18,0.10
4.564,-0.57,1.58,-4.55,-0.23,-1.24,0.10
4.567,-0.57,1.58,-4.55,-0.30,-1.30,0.10
4.567,-0.54,1.33,-4.40,-0.30,-1.30,0.10
4.567,-0.54,1.33,-4.40,-0.37,-1.36,0.10
4.571,-0.54,1.33,-4.40,-0.44,-1.41,0.10
4.571,-0.52,1.13,-4.19,-0.44,-1.41,0.10
4.575,-0.52,1.13,-4.19,-0.51,-1.47,0.10
4.576,-0.52,1.13,-4.19,-0.58,-1.52,0.10
4.576,-0.52,0.92,-3.98,-0.58,-1.52,0.10
4.579,-0.52,0.73,-3.75,-0.58,-1.52,0.10
4.579,-0.52,0.73,-3.75,-0.64,-1.57,0.11
4.579,-0.52,0.73,-3.75,-0.71,-1.62,0.11
4.582,-0.59,0.47,-3.46,-0.71,-1.62,0.11
4.583,-0.59,0.47,-3.46,-0.78,-1.67,0.12
4.587,-0.59,0.47,-3.46,-0.84,-1.73,0.13
4.587,-0.63,0.27,-3.14,-0.84,-1.73,0.13
4.587,-0.63,0.27,-3.14,-0.91,-1.79,0.13
4.591,-0.63,0.27,-3.14,-0.98,-1.85,0.14
4.591,-0.68,0.05,-2.76,-0.98,-1.85,0.14
4.595,-0.71,-0.22,-2.33,-0.98,-1.85,0.14
4.595,-0.71,-0.22,-2.33,-1.05,-1.92,0.14
4.595,-0.71,-0.22,-2.33,-1.13,-2.00,0.14
4.599,-0.71,-0.50,-1.77,-1.13,-2.00,0.14
4.599,-0.71,-0.50,-1.77,-1.21,-2.09,0.14
4.599,-0.71,-0.50,-1.77,-1.29,-2.20,0.14
4.602,-0.66,-0.85,-1.06,-1.29,-2.20,0.14
4.61,-0.66,-0.85,-1.06,-1.37,-2.31,0.13
4.61,-0.65,-1.25,0.14,-1.37,-2.31,0.13
4.61,-0.65,-1.25,0.14,-1.45,-2.41,0.13
4.61,-0.65,-1.25,0.14,-1.52,-2.50,0.13
4.612,-0.70,-1.71,2.06,-1.52,-2.50,0.13
4.612,-0.70,-1.71,2.06,-1.59,-2.55,0.13
4.615,-0.78,-2.10,4.40,-1.59,-2.55,0.13
4.615,-0.78,-2.10,4.40,-1.63,-2.56,0.14
4.615,-0.78,-2.10,4.40,-1.65,-2.52,0.15
4.619,-0.69,-2.31,7.09,-1.65,-2.52,0.15
4.619,-0.69,-2.31,7.09,-1.65,-2.39,0.16
4.619,-0.69,-2.31,7.09,-1.60,-2.18,0.18
4.624,-0.69,-2.31,7.09,-1.49,-1.85,0.20
4.624,-0.49,-2.39,10.34,-1.49,-1.85,0.20
4.628,-0.07,-2.35,13.57,-1.49,-1.85,0.20
4.628,-0.07,-2.35,13.57,-1.35,-1.43,0.22
4.628,-0.07,-2.35,13.57,-1.17,-0.98,0.23
4.631,-0.07,-2.35,13.57,-0.98,-0.54,0.24
4.631,0.54,-2.16,15.65,-0.98,-0.54,0.24
4.635,0.85,-1.73,15.37,-0.98,-0.54,0.24
4.635,0.85,-1.73,15.37,-0.79,-0.18,0.25
4.636,0.85,-1.73,15.37,-0.61,0.09,0.26
4.639,0.85,-1.73,15.37,-0.45,0.29,0.28
4.639,0.53,-1.17,13.43,-0.45,0.29,0.28
4.639,0.53,-1.17,13.43,-0.31,0.40,0.30
4.643,0.00,-0.57,11.06,-0.31,0.40,0.30
4.643,0.00,-0.57,11.06,-0.19,0.44,0.34
4.647,0.00,-0.57,11.06,-0.08,0.43,0.37
4.647,-0.59,-0.13,8.73,-0.08,0.43,0.37
4.647,-0.59,-0.13,8.73,0.01,0.39,0.42
4.651,-0.87,0.23,6.62,0.01,0.39,0.42
4.651,-0.87,0.23,6.62,0.09,0.34,0.46
4.655,-0.87,0.23,6.62,0.17,0.27,0.50
4.655,-0.87,0.23,6.62,0.24,0.22,0.54
4.655,-0.94,0.49,4.83,0.24,0.22,0.54
4.659,-0.94,0.49,4.83,0.32,0.17,0.58
4.659,-0.94,0.49,4.83,0.39,0.13,0.61
4.659,-0.91,0.69,3.41,0.39,0.13,0.61
4.663,-0.72,0.80,2.31,0.39,0.13,0.61
4.663,-0.72,0.80,2.31,0.46,0.10,0.64
4.667,-0.42,0.83,1.50,0.46,0.10,0.64
4.667,-0.42,0.83,1.50,0.54,0.09,0.65
4.668,-0.42,0.83,1.50,0.62,0.09,0.67
4.671,-0.42,0.83,1.50,0.69,0.10,0.67
4.672,-0.10,0.83,0.81,0.69,0.10,0.67
4.675,0.23,0.86,0.25,0.69,0.10,0.67
4.675,0.23,0.86,0.25,0.76,0.12,0.68
4.675,0.23,0.86,0.25,0.83,0.13,0.67
4.68,0.23,0.86,0.25,0.89,0.14,0.67
4.68,0.23,0.86,0.25,0.95,0.15,0.66
4.68,0.61,0.87,-0.21,0.95,0.15,0.66
4.683,0.61,0.87,-0.21,1.00,0.15,0.64
4.683,0.90,0.93,-0.61,1.00,0.15,0.64
4.687,0.90,0.93,-0.61,1.04,0.14,0.63
4.687,0.90,0.93,-0.61,1.07,0.12,0.61
4.688,1.17,1.02,-1.00,1.07,0.12,0.61
4.691,1.41,1.12,-1.32,1.07,0.12,0.61
4.691,1.41,1.12,-1.32,1.10,0.09,0.59
4.695,1.56,1.30,-1.64,1.10,0.09,0.59
4.697,1.56,1.30,-1.64,1.11,0.04,0.57
4.697,1.56,1.30,-1.64,1.11,-0.01,0.55
4.699,1.62,1.46,-1.91,1.11,-0.01,0.55
4.699,1.62,1.46,-1.91,1.11,-0.07,0.53
4.699,1.62,1.46,-1.91,1.10,-0.15,0.51
4.703,1.62,1.46,-1.91,1.07,-0.23,0.49
4.703,1.64,1.64,-2.19,1.07,-0.23,0.49
4.707,1.60,1.84,-2.42,1.07,-0.23,0.49
4.707,1.60,1.84,-2.42,1.03,-0.32,0.47
4.707,1.60,1.84,-2.42,0.99,-0.42,0.44
4.711,1.54,2.06,-2.63,0.99,-0.42,0.44
4.712,1.54,2.06,-2.63,0.95,-0.52,0.42
4.715,1.54,2.06,-2.63,0.89,-0.63,0.40
4.716,1.44,2.22,-2.78,0.89,-0.63,0.40
4.716,1.44,2.22,-2.78,0.83,-0.74,0.38
4.72,1.33,2.30,-2.89,0.83,-0.74,0.38
4.721,1.33,2.30,-2.89,0.78,-0.84,0.36
