
time,ax,ay,az,wx,wy,wz
0.003,0.19,0.11,-0.04,-0.24,0.13,0.01
0.004,0.19,0.11,-0.04,-0.23,0.13,0.01
0.004,0.19,0.11,-0.04,-0.21,0.13,0.01
0.004,0.24,0.05,0.29,-0.21,0.13,0.01
0.004,0.24,0.05,0.29,-0.18,0.12,0.01
0.004,0.24,0.05,0.29,-0.16,0.12,0.02
0.005,0.01,0.01,0.28,-0.16,0.12,0.02
0.005,0.01,0.01,0.28,-0.14,0.12,0.02
0.005,0.01,0.01,0.28,-0.11,0.12,0.03
0.005,-0.12,0.01,0.23,-0.11,0.12,0.03
0.006,-0.12,0.01,0.23,-0.09,0.12,0.03
0.007,-0.12,0.01,0.23,-0.06,0.11,0.04
0.007,-0.11,0.08,0.30,-0.06,0.11,0.04
0.014,-0.07,0.14,0.36,-0.06,0.11,0.04
0.015,-0.07,0.14,0.36,-0.04,0.11,0.04
0.015,-0.07,0.14,0.36,-0.01,0.11,0.04
0.015,-0.07,0.14,0.36,0.01,0.10,0.04
0.015,-0.08,0.15,0.34,0.01,0.10,0.04
0.018,-0.08,0.15,0.34,0.03,0.10,0.04
0.018,-0.08,0.15,0.34,0.05,0.10,0.04
0.018,-0.12,0.16,0.30,0.05,0.10,0.04
0.022,-0.12,0.16,0.30,0.07,0.10,0.04
0.024,-0.14,0.13,0.22,0.07,0.10,0.04
0.026,-0.14,0.13,0.22,0.08,0.09,0.03
0.026,-0.09,0.12,0.22,0.08,0.09,0.03
0.027,-0.09,0.12,0.22,0.09,0.09,0.03
0.03,-0.09,0.12,0.22,0.10,0.09,0.03
0.03,-0.06,0.11,0.20,0.10,0.09,0.03
0.03,-0.06,0.11,0.20,0.11,0.10,0.02
0.034,-0.06,0.11,0.20,0.12,0.10,0.02
0.034,-0.02,0.10,0.18,0.12,0.10,0.02
0.038,-0.02,0.10,0.18,0.12,0.11,0.02
0.039,-0.02,0.10,0.18,0.12,0.12,0.02
0.039,-0.04,0.11,0.11,0.12,0.12,0.02
0.042,-0.04,0.11,0.11,0.12,0.13,0.02
0.042,-0.08,0.15,0.05,0.12,0.13,0.02
0.046,-0.08,0.15,0.05,0.12,0.14,0.02
0.046,-0.08,0.15,0.05,0.11,0.14,0.01
0.047,-0.05,0.19,-0.03,0.11,0.14,0.01
0.05,-0.05,0.19,-0.03,0.10,0.14,0.01
0.05,-0.05,0.19,-0.03,0.10,0.14,0.01
0.051,-0.03,0.20,-0.03,0.10,0.14,0.01
0.054,-0.05,0.19,-0.06,0.10,0.14,0.01
0.054,-0.05,0.19,-0.06,0.09,0.14,0.01
0.058,-0.05,0.19,-0.06,0.07,0.14,0.01
0.059,-0.05,0.19,-0.06,0.06,0.13,0.01
0.061,-0.03,0.16,-0.12,0.06,0.13,0.01
0.062,-0.03,0.16,-0.12,0.05,0.13,0.00
0.063,-0.06,0.12,-0.23,0.05,0.13,0.00
0.066,-0.06,0.12,-0.23,0.04,0.13,0.00
0.068,-0.06,0.12,-0.23,0.02,0.13,0.01
0.068,-0.07,0.07,-0.28,0.02,0.13,0.01
0.07,-0.07,0.07,-0.28,0.00,0.12,0.00
0.071,-0.07,0.07,-0.28,-0.01,0.11,0.00
0.071,-0.01,0.04,-0.30,-0.01,0.11,0.00
0.075,0.07,0.02,-0.24,-0.01,0.11,0.00
0.075,0.07,0.02,-0.24,-0.03,0.09,0.00
0.078,0.07,0.02,-0.24,-0.04,0.08,-0.00
0.079,0.13,-0.03,-0.19,-0.04,0.08,-0.00
0.079,0.13,-0.03,-0.19,-0.05,0.06,-0.00
0.083,0.13,-0.03,-0.19,-0.06,0.04,-0.00
0.083,0.15,-0.04,-0.15,-0.06,0.04,-0.00
0.086,0.15,-0.04,-0.15,-0.07,0.03,-0.01
0.087,0.15,-0.04,-0.15,-0.08,0.01,-0.01
0.087,0.14,-0.10,-0.15,-0.08,0.01,-0.01
0.092,0.14,-0.10,-0.15,-0.09,0.00,-0.01
0.092,0.11,-0.14,-0.09,-0.09,0.00,-0.01
0.095,0.11,-0.14,-0.09,-0.09,-0.01,-0.00
0.095,0.10,-0.16,0.03,-0.09,-0.01,-0.00
0.095,0.10,-0.16,0.03,-0.09,-0.01,-0.00
0.098,0.10,-0.16,0.03,-0.09,-0.02,0.00
0.099,0.11,-0.19,0.15,-0.09,-0.02,0.00
0.099,0.11,-0.19,0.15,-0.09,-0.02,0.00
0.101,0.11,-0.19,0.15,-0.09,-0.02,0.01
0.102,0.08,-0.16,0.24,-0.09,-0.02,0.01
0.107,0.08,-0.16,0.24,-0.08,-0.02,0.01
0.115,0.03,-0.18,0.29,-0.08,-0.02,0.01
0.116,0.03,-0.18,0.29,-0.07,-0.01,0.01
0.116,0.03,-0.18,0.29,-0.06,-0.01,0.01
0.116,0.03,-0.20,0.27,-0.06,-0.01,0.01
0.116,0.03,-0.20,0.27,-0.05,0.00,0.01
0.117,0.03,-0.20,0.27,-0.04,0.01,0.01
0.117,0.07,-0.19,0.22,-0.04,0.01,0.01
0.123,0.07,-0.19,0.22,-0.03,0.02,0.01
0.124,0.07,-0.19,0.24,-0.03,0.02,0.01
0.125,0.07,-0.19,0.24,-0.03,0.02,0.01
0.125,0.07,-0.19,0.24,-0.02,0.03,0.01
0.125,0.09,-0.19,0.23,-0.02,0.03,0.01
0.126,0.09,-0.19,0.23,-0.01,0.03,0.01
0.132,0.09,-0.19,0.23,-0.01,0.04,0.01
0.132,0.12,-0.19,0.25,-0.01,0.04,0.01
0.132,0.12,-0.19,0.25,-0.00,0.04,0.01
0.132,0.15,-0.17,0.22,-0.00,0.04,0.01
0.133,0.15,-0.17,0.22,0.00,0.04,0.01
0.135,0.15,-0.17,0.22,0.01,0.05,0.01
0.135,0.17,-0.15,0.17,0.01,0.05,0.01
0.138,0.17,-0.15,0.17,0.01,0.05,0.01
0.139,0.17,-0.12,0.16,0.01,0.05,0.01
0.139,0.17,-0.12,0.16,0.01,0.06,0.01
0.141,0.17,-0.12,0.16,0.01,0.06,0.00
0.153,0.18,-0.06,0.15,0.01,0.06,0.00
0.153,0.18,-0.06,0.15,0.02,0.07,0.00
0.153,0.18,-0.06,0.15,0.02,0.08,0.00
0.153,0.16,-0.07,0.13,0.02,0.08,0.00
0.154,0.16,-0.07,0.13,0.02,0.09,0.00
0.154,0.16,-0.07,0.13,0.01,0.09,0.00
0.154,0.13,-0.06,0.11,0.01,0.09,0.00
0.154,0.11,-0.05,0.09,0.01,0.09,0.00
0.154,0.11,-0.05,0.09,0.02,0.10,0.01
0.158,0.11,-0.05,0.09,0.02,0.11,0.01
0.159,0.10,-0.03,0.10,0.02,0.11,0.01
0.159,0.10,-0.03,0.10,0.02,0.11,0.00
0.164,0.10,-0.03,0.10,0.02,0.11,0.00
0.164,0.11,-0.01,0.09,0.02,0.11,0.00
0.167,0.11,-0.01,0.09,0.02,0.11,0.00
0.167,0.09,0.01,0.05,0.02,0.11,0.00
0.167,0.09,0.01,0.05,0.02,0.11,-0.00
0.17,0.09,0.01,0.05,0.01,0.11,-0.00
0.17,0.05,0.02,-0.02,0.01,0.11,-0.00
0.17,0.05,0.02,-0.02,0.01,0.11,-0.01
0.175,0.05,0.02,-0.02,0.01,0.11,-0.01
0.175,-0.04,0.02,-0.11,0.01,0.11,-0.01
0.177,-0.04,0.02,-0.11,0.00,0.12,-0.01
0.181,-0.04,0.02,-0.11,0.00,0.12,-0.01
0.181,-0.04,0.02,-0.11,0.00,0.12,-0.01
0.181,-0.09,0.04,-0.12,0.00,0.12,-0.01
0.185,-0.06,0.03,-0.05,0.00,0.12,-0.01
0.185,-0.06,0.03,-0.05,0.00,0.13,-0.01
0.189,-0.06,0.03,-0.05,0.01,0.14,-0.01
0.19,-0.06,0.03,-0.05,0.01,0.15,-0.01
0.19,0.00,0.01,0.02,0.01,0.15,-0.01
0.192,0.00,0.01,0.02,0.01,0.16,-0.01
0.192,0.01,0.02,0.04,0.01,0.16,-0.01
0.197,0.01,0.02,0.04,0.02,0.18,-0.02
0.197,-0.02,-0.00,0.06,0.02,0.18,-0.02
0.197,-0.02,-0.00,0.06,0.02,0.19,-0.02
0.202,-0.02,-0.00,0.06,0.03,0.20,-0.01
0.202,-0.10,0.02,0.05,0.03,0.20,-0.01
0.202,-0.10,0.02,0.05,0.03,0.20,-0.01
0.205,-0.16,0.04,-0.00,0.03,0.20,-0.01
0.205,-0.16,0.04,-0.00,0.03,0.21,-0.01
0.211,-0.25,0.03,-0.03,0.03,0.21,-0.01
0.211,-0.25,0.03,-0.03,0.04,0.21,-0.00
0.212,-0.25,0.03,-0.03,0.04,0.21,-0.00
0.213,-0.25,0.03,-0.03,0.05,0.21,0.00
0.213,-0.26,0.00,-0.06,0.05,0.21,0.00
0.216,-0.16,0.00,-0.06,0.05,0.21,0.00
0.217,-0.16,0.00,-0.06,0.05,0.21,0.00
0.217,-0.16,0.00,-0.06,0.05,0.20,0.00
0.221,-0.16,0.00,-0.06,0.05,0.20,0.00
0.221,-0.10,-0.04,-0.07,0.05,0.20,0.00
0.222,-0.10,-0.04,-0.07,0.05,0.19,-0.00
0.225,-0.04,-0.05,-0.09,0.05,0.19,-0.00
0.225,-0.04,-0.05,-0.09,0.05,0.18,0.00
0.229,-0.04,-0.05,-0.09,0.06,0.18,0.00
0.23,-0.04,-0.05,-0.09,0.06,0.17,-0.00
0.23,-0.04,-0.03,-0.06,0.06,0.17,-0.00
0.233,-0.04,-0.03,-0.06,0.06,0.16,-0.00
0.233,-0.06,-0.03,-0.03,0.06,0.16,-0.00
0.238,-0.05,-0.04,0.00,0.06,0.16,-0.00
0.239,-0.05,-0.04,0.00,0.07,0.16,-0.00
0.239,-0.05,-0.04,0.00,0.07,0.15,-0.00
0.241,-0.05,-0.04,0.00,0.07,0.15,0.00
0.242,-0.05,-0.06,0.01,0.07,0.15,0.00
0.242,-0.05,-0.06,0.01,0.07,0.14,0.00
0.245,-0.07,-0.07,0.04,0.07,0.14,0.00
0.246,-0.07,-0.07,0.04,0.08,0.14,0.00
0.251,-0.07,-0.07,0.04,0.08,0.13,0.00
0.251,-0.07,-0.07,0.04,0.08,0.13,0.01
0.251,-0.08,-0.05,0.07,0.08,0.13,0.01
0.253,-0.08,-0.05,0.07,0.08,0.14,0.00
0.253,-0.04,-0.10,0.10,0.08,0.14,0.00
0.257,-0.04,-0.10,0.10,0.08,0.14,0.01
0.258,-0.04,-0.05,0.10,0.08,0.14,0.01
0.258,-0.04,-0.05,0.10,0.09,0.14,0.01
0.261,-0.04,-0.05,0.10,0.09,0.15,0.01
0.262,-0.00,-0.00,0.09,0.09,0.15,0.01
0.262,-0.00,-0.00,0.09,0.09,0.16,0.01
0.265,-0.04,0.01,0.15,0.09,0.16,0.01
0.266,-0.04,0.01,0.15,0.09,0.17,0.01
0.269,-0.05,0.04,0.23,0.09,0.17,0.01
0.269,-0.05,0.04,0.23,0.09,0.18,0.02
0.27,-0.05,0.04,0.23,0.09,0.19,0.02
0.272,-0.03,0.07,0.26,0.09,0.19,0.02
0.272,-0.03,0.07,0.26,0.09,0.21,0.02
0.276,0.03,0.08,0.27,0.09,0.21,0.02
0.278,0.03,0.08,0.27,0.09,0.23,0.02
0.279,0.03,0.08,0.27,0.09,0.25,0.02
0.28,0.03,0.08,0.27,0.09,0.27,0.02
0.281,-0.01,0.09,0.26,0.09,0.27,0.02
0.281,-0.01,0.09,0.26,0.09,0.30,0.03
0.284,-0.02,0.10,0.29,0.09,0.30,0.03
0.284,-0.02,0.10,0.29,0.09,0.32,0.03
0.288,-0.02,0.10,0.29,0.09,0.35,0.03
0.289,0.07,0.09,0.33,0.09,0.35,0.03
0.289,0.07,0.09,0.33,0.09,0.37,0.03
0.293,0.07,0.09,0.33,0.09,0.39,0.03
0.294,0.10,0.09,0.32,0.09,0.39,0.03
0.297,0.10,0.09,0.32,0.09,0.41,0.03
0.298,0.10,0.11,0.29,0.09,0.41,0.03
0.328,0.10,0.11,0.29,0.08,0.43,0.03
0.328,0.10,0.11,0.29,0.08,0.45,0.03
0.329,0.10,0.11,0.29,0.07,0.46,0.03
0.329,0.05,0.08,0.22,0.07,0.46,0.03
0.33,0.03,0.07,0.13,0.07,0.46,0.03
0.33,0.03,0.07,0.13,0.06,0.47,0.03
0.33,-0.03,0.05,0.06,0.06,0.47,0.03
0.331,-0.03,0.05,0.06,0.05,0.48,0.03
0.331,-0.03,0.05,0.06,0.05,0.49,0.03
0.331,-0.05,0.05,0.06,0.05,0.49,0.03
0.331,-0.05,0.05,0.06,0.04,0.49,0.03
0.332,-0.05,0.03,0.02,0.04,0.49,0.03
0.332,-0.05,0.03,0.02,0.03,0.48,0.03
0.332,-0.05,0.03,0.02,0.02,0.48,0.03
0.333,-0.05,0.03,0.02,0.02,0.48,0.02
0.333,-0.09,0.02,-0.03,0.02,0.48,0.02
0.333,-0.09,0.02,-0.03,0.01,0.47,0.02
0.334,-0.13,0.04,-0.09,0.01,0.47,0.02
0.334,-0.13,0.04,-0.09,0.00,0.46,0.02
0.334,-0.13,0.04,-0.09,-0.00,0.46,0.02
0.335,-0.12,0.03,-0.14,-0.00,0.46,0.02
0.335,-0.12,0.03,-0.14,-0.01,0.45,0.01
0.335,-0.10,0.02,-0.19,-0.01,0.45,0.01
0.335,-0.10,0.02,-0.19,-0.02,0.45,0.01
0.341,-0.10,0.02,-0.19,-0.02,0.44,0.00
0.341,-0.04,0.02,-0.21,-0.02,0.44,0.00
0.342,-0.04,0.02,-0.21,-0.02,0.43,-0.00
0.342,-0.04,0.02,-0.21,-0.03,0.43,-0.01
0.343,-0.03,-0.03,-0.23,-0.03,0.43,-0.01
0.343,-0.03,-0.03,-0.23,-0.03,0.42,-0.02
0.343,-0.01,-0.05,-0.23,-0.03,0.42,-0.02
0.346,-0.01,-0.05,-0.23,-0.03,0.42,-0.02
0.349,-0.01,-0.05,-0.23,-0.03,0.41,-0.02
0.349,-0.05,-0.05,-0.24,-0.03,0.41,-0.02
0.351,-0.05,-0.05,-0.24,-0.03,0.40,-0.02
0.351,-0.05,-0.12,-0.24,-0.03,0.40,-0.02
0.351,-0.05,-0.12,-0.24,-0.03,0.39,-0.02
0.355,-0.02,-0.14,-0.17,-0.03,0.39,-0.02
0.355,-0.02,-0.14,-0.17,-0.03,0.38,-0.03
0.361,0.01,-0.14,-0.10,-0.03,0.38,-0.03
0.361,0.01,-0.14,-0.10,-0.02,0.37,-0.03
0.362,0.01,-0.14,-0.10,-0.02,0.36,-0.03
0.363,0.01,-0.14,-0.10,-0.01,0.35,-0.03
0.364,0.02,-0.15,-0.07,-0.01,0.35,-0.03
0.367,0.02,-0.15,-0.07,0.00,0.34,-0.03
0.367,0.00,-0.16,0.00,0.00,0.34,-0.03
0.369,0.00,-0.16,0.00,0.01,0.33,-0.03
0.371,0.00,-0.16,0.00,0.03,0.33,-0.03
0.371,-0.04,-0.17,0.06,0.03,0.33,-0.03
0.371,-0.04,-0.17,0.06,0.04,0.32,-0.03
0.375,-0.04,-0.17,0.06,0.05,0.31,-0.02
0.375,-0.06,-0.14,0.09,0.05,0.31,-0.02
0.378,-0.06,-0.14,0.09,0.06,0.30,-0.02
0.379,-0.06,-0.14,0.09,0.07,0.29,-0.02
0.379,-0.05,-0.13,0.11,0.07,0.29,-0.02
0.383,-0.05,-0.13,0.11,0.08,0.28,-0.02
0.384,-0.06,-0.12,0.10,0.08,0.28,-0.02
0.387,-0.06,-0.12,0.10,0.09,0.27,-0.02
0.387,-0.06,-0.12,0.10,0.10,0.26,-0.02
0.387,-0.11,-0.07,0.09,0.10,0.26,-0.02
0.391,-0.11,-0.07,0.09,0.10,0.25,-0.02
0.391,-0.17,-0.05,0.07,0.10,0.25,-0.02
0.392,-0.17,-0.05,0.07,0.11,0.24,-0.02
0.395,-0.17,-0.05,0.07,0.12,0.23,-0.02
0.395,-0.22,-0.07,0.02,0.12,0.23,-0.02
0.4,-0.22,-0.07,0.02,0.12,0.22,-0.03
0.4,-0.22,-0.07,0.02,0.12,0.21,-0.03
0.4,-0.09,-0.05,-0.00,0.12,0.21,-0.03
0.403,-0.09,-0.05,-0.00,0.12,0.20,-0.04
0.403,0.06,-0.01,-0.05,0.12,0.20,-0.04
0.407,0.06,-0.01,-0.05,0.12,0.19,-0.04
0.409,0.06,-0.01,-0.05,0.12,0.19,-0.05
0.411,0.06,-0.01,-0.05,0.11,0.19,-0.05
0.412,0.10,-0.03,-0.09,0.11,0.19,-0.05
0.412,0.10,-0.03,-0.09,0.11,0.19,-0.06
0.412,0.08,-0.06,-0.12,0.11,0.19,-0.06
0.415,0.08,-0.06,-0.12,0.11,0.18,-0.06
0.416,0.05,-0.10,-0.13,0.11,0.18,-0.06
0.42,0.04,-0.11,-0.03,0.11,0.18,-0.06
0.42,0.04,-0.11,-0.03,0.11,0.18,-0.07
0.42,0.04,-0.11,-0.03,0.11,0.18,-0.07
0.423,0.04,-0.11,-0.03,0.11,0.17,-0.07
0.424,-0.02,-0.17,0.04,0.11,0.17,-0.07
0.427,-0.02,-0.17,0.04,0.11,0.16,-0.07
0.428,-0.06,-0.19,0.08,0.11,0.16,-0.07
0.428,-0.06,-0.19,0.08,0.11,0.16,-0.07
0.431,-0.06,-0.19,0.08,0.11,0.15,-0.07
0.432,-0.10,-0.22,0.07,0.11,0.15,-0.07
0.432,-0.10,-0.22,0.07,0.11,0.15,-0.07
0.436,-0.10,-0.22,0.07,0.11,0.14,-0.06
0.436,-0.10,-0.25,0.04,0.11,0.14,-0.06
0.439,-0.10,-0.25,0.04,0.11,0.14,-0.06
0.439,-0.10,-0.25,0.04,0.11,0.13,-0.06
0.44,-0.13,-0.28,0.02,0.11,0.13,-0.06
0.445,-0.13,-0.28,0.02,0.11,0.12,-0.06
0.445,-0.15,-0.28,-0.02,0.11,0.12,-0.06
0.448,-0.15,-0.28,-0.02,0.11,0.11,-0.06
0.449,-0.16,-0.33,-0.04,0.11,0.11,-0.06
0.449,-0.16,-0.33,-0.04,0.11,0.11,-0.06
0.451,-0.16,-0.33,-0.04,0.12,0.10,-0.07
0.472,-0.22,-0.34,0.02,0.12,0.10,-0.07
0.472,-0.22,-0.34,0.02,0.12,0.08,-0.07
0.473,-0.26,-0.35,0.09,0.12,0.08,-0.07
0.473,-0.26,-0.35,0.09,0.12,0.07,-0.07
0.473,-0.26,-0.35,0.09,0.13,0.06,-0.08
0.473,-0.26,-0.35,0.09,0.13,0.05,-0.08
0.474,-0.21,-0.43,0.07,0.13,0.05,-0.08
0.474,-0.21,-0.43,0.07,0.14,0.04,-0.09
0.474,-0.25,-0.51,0.08,0.14,0.04,-0.09
0.474,-0.25,-0.51,0.08,0.15,0.04,-0.10
0.475,-0.25,-0.51,0.08,0.16,0.04,-0.11
0.475,-0.27,-0.61,0.07,0.16,0.04,-0.11
0.475,-0.27,-0.61,0.07,0.16,0.03,-0.12
0.475,-0.27,-0.61,0.07,0.17,0.03,-0.13
0.476,-0.26,-0.64,0.09,0.17,0.03,-0.13
0.476,-0.26,-0.73,0.05,0.17,0.03,-0.13
0.476,-0.26,-0.73,0.05,0.18,0.03,-0.14
0.48,-0.26,-0.73,0.05,0.19,0.02,-0.15
0.48,-0.26,-0.73,0.05,0.20,0.01,-0.17
0.48,-0.26,-0.85,0.04,0.20,0.01,-0.17
0.482,-0.26,-0.85,0.04,0.21,-0.01,-0.18
0.483,-0.22,-0.94,0.00,0.21,-0.01,-0.18
0.486,-0.22,-0.94,0.00,0.22,-0.03,-0.20
0.487,-0.22,-1.03,-0.05,0.22,-0.03,-0.20
0.487,-0.22,-1.03,-0.05,0.23,-0.05,-0.21
0.491,-0.22,-1.03,-0.05,0.24,-0.08,-0.23
0.491,-0.22,-1.03,-0.05,0.26,-0.10,-0.26
0.491,-0.16,-1.07,-0.03,0.26,-0.10,-0.26
0.496,-0.16,-1.07,-0.03,0.28,-0.13,-0.28
0.496,-0.03,-1.10,0.06,0.28,-0.13,-0.28
0.499,-0.03,-1.10,0.06,0.30,-0.17,-0.31
0.499,-0.03,-1.10,0.06,0.31,-0.20,-0.34
0.499,0.03,-1.07,0.15,0.31,-0.20,-0.34
0.504,0.03,-1.07,0.15,0.34,-0.24,-0.37
0.504,0.05,-1.07,0.17,0.34,-0.24,-0.37
0.506,0.05,-1.07,0.17,0.36,-0.28,-0.39
0.508,0.05,-1.07,0.17,0.39,-0.32,-0.42
0.508,0.01,-1.10,0.24,0.39,-0.32,-0.42
0.511,0.01,-1.10,0.24,0.41,-0.37,-0.44
0.511,-0.01,-1.11,0.29,0.41,-0.37,-0.44
0.511,-0.01,-1.11,0.29,0.45,-0.41,-0.47
0.515,-0.01,-1.11,0.29,0.47,-0.46,-0.49
0.515,0.01,-1.13,0.35,0.47,-0.46,-0.49
0.518,0.01,-1.13,0.35,0.50,-0.50,-0.52
0.52,0.01,-1.12,0.37,0.50,-0.50,-0.52
0.52,0.01,-1.12,0.37,0.53,-0.55,-0.55
0.523,0.01,-1.12,0.37,0.57,-0.59,-0.57
0.523,0.05,-1.15,0.35,0.57,-0.59,-0.57
0.528,0.05,-1.15,0.35,0.60,-0.63,-0.60
0.528,0.10,-1.15,0.29,0.60,-0.63,-0.60
0.528,0.10,-1.15,0.29,0.63,-0.67,-0.63
0.531,0.10,-1.15,0.29,0.66,-0.71,-0.66
0.531,0.10,-1.15,0.29,0.70,-0.75,-0.69
0.531,0.17,-1.16,0.35,0.70,-0.75,-0.69
0.535,0.17,-1.16,0.35,0.73,-0.79,-0.72
0.536,0.20,-1.15,0.37,0.73,-0.79,-0.72
0.54,0.20,-1.15,0.37,0.77,-0.82,-0.74
0.54,0.20,-1.15,0.37,0.81,-0.86,-0.76
0.54,0.08,-1.14,0.48,0.81,-0.86,-0.76
0.541,0.08,-1.14,0.48,0.85,-0.89,-0.78
0.543,0.04,-1.10,0.59,0.85,-0.89,-0.78
0.545,0.04,-1.10,0.59,0.89,-0.92,-0.79
0.549,0.04,-1.10,0.59,0.92,-0.94,-0.80
0.549,-0.00,-1.14,0.55,0.92,-0.94,-0.80
0.551,-0.00,-1.14,0.55,0.96,-0.94,-0.81
0.551,-0.08,-1.20,0.39,0.96,-0.94,-0.81
0.551,-0.08,-1.20,0.39,0.99,-0.94,-0.82
0.555,-0.08,-1.20,0.39,1.01,-0.93,-0.82
0.556,-0.17,-1.29,0.18,1.01,-0.93,-0.82
0.559,-0.17,-1.29,0.18,1.03,-0.92,-0.82
0.56,-0.24,-1.37,-0.00,1.03,-0.92,-0.82
0.56,-0.24,-1.37,-0.00,1.05,-0.91,-0.82
0.563,-0.24,-1.37,-0.00,1.06,-0.89,-0.82
0.564,-0.21,-1.37,-0.07,1.06,-0.89,-0.82
0.568,-0.21,-1.37,-0.07,1.07,-0.88,-0.82
0.568,-0.19,-1.33,-0.17,1.07,-0.88,-0.82
0.57,-0.19,-1.33,-0.17,1.08,-0.87,-0.82
0.57,-0.19,-1.33,-0.17,1.08,-0.86,-0.82
0.572,-0.19,-1.33,-0.17,1.09,-0.85,-0.82
0.572,-0.25,-1.22,-0.28,1.09,-0.85,-0.82
0.575,-0.37,-1.13,-0.34,1.09,-0.85,-0.82
0.576,-0.37,-1.13,-0.34,1.09,-0.84,-0.81
0.579,-0.37,-1.13,-0.34,1.08,-0.82,-0.80
0.579,-0.37,-1.13,-0.34,1.08,-0.80,-0.79
0.582,-0.61,-0.95,-0.44,1.08,-0.80,-0.79
0.583,-0.61,-0.95,-0.44,1.07,-0.78,-0.78
0.583,-0.73,-0.77,-0.41,1.07,-0.78,-0.78
0.587,-0.73,-0.77,-0.41,1.07,-0.76,-0.76
0.587,-0.71,-0.58,-0.35,1.07,-0.76,-0.76
0.588,-0.71,-0.58,-0.35,1.06,-0.74,-0.75
0.591,-0.71,-0.58,-0.35,1.05,-0.72,-0.75
0.592,-0.55,-0.39,-0.26,1.05,-0.72,-0.75
0.592,-0.55,-0.39,-0.26,1.05,-0.70,-0.74
0.598,-0.55,-0.39,-0.26,1.04,-0.69,-0.74
0.599,-0.41,-0.18,-0.24,1.04,-0.69,-0.74
0.599,-0.41,-0.18,-0.24,1.03,-0.68,-0.73
0.599,-0.41,-0.18,-0.24,1.02,-0.67,-0.72
0.6,-0.56,0.07,-0.30,1.02,-0.67,-0.72
0.603,-0.56,0.07,-0.30,1.00,-0.66,-0.70
0.603,-0.72,0.46,-0.41,1.00,-0.66,-0.70
0.626,-0.72,0.46,-0.41,0.98,-0.64,-0.68
0.626,-0.72,0.46,-0.41,0.96,-0.63,-0.67
0.627,-0.67,0.77,-0.50,0.96,-0.63,-0.67
0.627,-0.67,0.77,-0.50,0.95,-0.61,-0.66
0.628,-0.41,0.95,-0.53,0.95,-0.61,-0.66
0.628,-0.41,0.95,-0.53,0.92,-0.59,-0.65
0.628,-0.13,0.96,-0.57,0.92,-0.59,-0.65
0.628,-0.13,0.96,-0.57,0.90,-0.56,-0.64
0.628,-0.13,0.96,-0.57,0.89,-0.52,-0.64
0.629,-0.13,0.96,-0.57,0.87,-0.47,-0.64
0.629,0.19,0.93,-0.54,0.87,-0.47,-0.64
0.629,0.19,0.93,-0.54,0.87,-0.43,-0.64
0.629,0.42,0.79,-0.42,0.87,-0.43,-0.64
0.629,0.42,0.79,-0.42,0.86,-0.40,-0.65
0.63,0.71,0.66,-0.09,0.86,-0.40,-0.65
0.63,0.71,0.66,-0.09,0.86,-0.38,-0.66
0.63,0.71,0.66,-0.09,0.87,-0.36,-0.67
0.632,0.96,0.55,0.28,0.87,-0.36,-0.67
0.633,0.96,0.55,0.28,0.88,-0.34,-0.69
0.634,1.24,0.43,0.58,0.88,-0.34,-0.69
0.634,1.24,0.43,0.58,0.90,-0.32,-0.70
0.64,1.24,0.43,0.58,0.92,-0.30,-0.71
0.641,1.27,0.29,0.75,0.92,-0.30,-0.71
0.642,1.27,0.29,0.75,0.94,-0.28,-0.72
0.642,1.27,0.29,0.75,0.96,-0.24,-0.73
0.643,1.25,0.19,0.84,0.96,-0.24,-0.73
0.647,1.25,0.19,0.84,0.97,-0.21,-0.72
0.648,1.25,0.19,0.84,0.99,-0.17,-0.72
0.648,1.12,0.19,0.84,0.99,-0.17,-0.72
0.651,1.12,0.19,0.84,1.00,-0.12,-0.70
0.651,1.12,0.19,0.84,1.01,-0.07,-0.67
0.652,0.88,0.19,0.68,1.01,-0.07,-0.67
0.657,0.88,0.19,0.68,1.01,-0.02,-0.64
0.657,0.61,0.26,0.44,1.01,-0.02,-0.64
0.657,0.61,0.26,0.44,1.00,0.03,-0.60
0.661,0.61,0.26,0.44,0.99,0.08,-0.56
0.661,0.61,0.26,0.44,0.98,0.13,-0.52
0.662,0.36,0.32,0.22,0.98,0.13,-0.52
0.664,0.21,0.36,0.04,0.98,0.13,-0.52
0.669,0.26,0.36,-0.09,0.98,0.13,-0.52
0.669,0.26,0.36,-0.09,0.96,0.17,-0.48
0.669,0.26,0.36,-0.09,0.93,0.19,-0.44
0.669,0.26,0.36,-0.09,0.91,0.21,-0.41
0.675,0.26,0.36,-0.09,0.88,0.22,-0.38
0.676,0.33,0.38,-0.13,0.88,0.22,-0.38
0.676,0.37,0.36,-0.17,0.88,0.22,-0.38
0.676,0.37,0.36,-0.17,0.85,0.21,-0.35
0.679,0.37,0.36,-0.17,0.82,0.20,-0.33
0.68,0.37,0.36,-0.17,0.79,0.18,-0.31
0.681,0.37,0.36,-0.17,0.75,0.15,-0.29
0.681,0.42,0.36,-0.24,0.75,0.15,-0.29
0.684,0.45,0.35,-0.28,0.75,0.15,-0.29
0.688,0.45,0.35,-0.28,0.72,0.12,-0.28
0.689,0.45,0.35,-0.28,0.68,0.08,-0.26
0.689,0.39,0.32,-0.37,0.68,0.08,-0.26
0.689,0.39,0.32,-0.37,0.65,0.05,-0.25
0.693,0.30,0.30,-0.36,0.65,0.05,-0.25
0.693,0.30,0.30,-0.36,0.62,0.01,-0.24
0.697,0.18,0.30,-0.33,0.62,0.01,-0.24
0.697,0.18,0.30,-0.33,0.59,-0.02,-0.22
0.697,0.18,0.30,-0.33,0.57,-0.05,-0.21
0.7,0.05,0.23,-0.30,0.57,-0.05,-0.21
0.701,0.05,0.23,-0.30,0.54,-0.09,-0.20
0.701,0.05,0.23,-0.30,0.52,-0.12,-0.19
0.704,0.09,0.20,-0.23,0.52,-0.12,-0.19
0.704,0.09,0.20,-0.23,0.50,-0.16,-0.19
0.709,0.04,0.11,-0.26,0.50,-0.16,-0.19
0.709,0.04,0.11,-0.26,0.48,-0.19,-0.18
0.709,0.04,0.11,-0.26,0.46,-0.23,-0.18
0.713,0.04,0.11,-0.26,0.44,-0.27,-0.19
0.714,0.03,0.03,-0.34,0.44,-0.27,-0.19
0.716,0.00,-0.04,-0.38,0.44,-0.27,-0.19
0.716,0.00,-0.04,-0.38,0.43,-0.31,-0.19
0.717,0.00,-0.04,-0.38,0.41,-0.35,-0.20
0.721,0.00,-0.04,-0.38,0.40,-0.38,-0.20
0.721,-0.07,-0.11,-0.40,0.40,-0.38,-0.20
0.721,-0.07,-0.11,-0.40,0.39,-0.40,-0.21
0.724,-0.20,-0.11,-0.44,0.39,-0.40,-0.21
0.724,-0.20,-0.11,-0.44,0.38,-0.42,-0.21
0.728,-0.20,-0.11,-0.44,0.37,-0.43,-0.22
0.729,-0.34,-0.11,-0.42,0.37,-0.43,-0.22
0.729,-0.34,-0.11,-0.42,0.36,-0.44,-0.22
0.733,-0.41,-0.15,-0.34,0.36,-0.44,-0.22
0.733,-0.41,-0.15,-0.34,0.36,-0.44,-0.23
0.736,-0.41,-0.15,-0.34,0.36,-0.45,-0.24
0.737,-0.39,-0.16,-0.30,0.36,-0.45,-0.24
0.737,-0.39,-0.16,-0.30,0.36,-0.44,-0.25
0.74,-0.39,-0.16,-0.30,0.36,-0.44,-0.26
0.74,-0.37,-0.18,-0.29,0.36,-0.44,-0.26
0.741,-0.37,-0.18,-0.29,0.36,-0.43,-0.27
0.743,-0.29,-0.19,-0.25,0.36,-0.43,-0.27
0.745,-0.29,-0.19,-0.25,0.37,-0.42,-0.29
0.748,-0.29,-0.19,-0.25,0.37,-0.41,-0.30
0.748,-0.25,-0.21,-0.27,0.37,-0.41,-0.30
0.75,-0.25,-0.21,-0.27,0.37,-0.39,-0.32
0.751,-0.14,-0.24,-0.24,0.37,-0.39,-0.32
0.751,-0.14,-0.24,-0.24,0.38,-0.38,-0.34
0.755,-0.12,-0.24,-0.22,0.38,-0.38,-0.34
0.755,-0.12,-0.24,-0.22,0.39,-0.37,-0.36
0.759,-0.12,-0.24,-0.22,0.39,-0.36,-0.38
0.778,-0.12,-0.24,-0.22,0.40,-0.35,-0.39
0.778,-0.10,-0.16,-0.15,0.40,-0.35,-0.39
0.778,-0.10,-0.16,-0.15,0.41,-0.33,-0.41
0.778,-0.07,-0.08,-0.12,0.41,-0.33,-0.41
0.779,-0.07,-0.08,-0.12,0.42,-0.32,-0.43
0.779,0.02,0.02,-0.05,0.42,-0.32,-0.43
0.779,0.02,0.02,-0.05,0.43,-0.31,-0.44
0.779,0.02,0.02,-0.05,0.44,-0.29,-0.45
0.779,0.06,0.12,-0.05,0.44,-0.29,-0.45
0.779,0.06,0.12,-0.05,0.45,-0.27,-0.47
0.78,0.06,0.12,-0.05,0.45,-0.25,-0.48
0.78,0.11,0.23,-0.10,0.45,-0.25,-0.48
0.78,0.11,0.23,-0.10,0.46,-0.24,-0.49
0.78,0.20,0.33,-0.20,0.46,-0.24,-0.49
0.78,0.20,0.33,-0.20,0.46,-0.22,-0.51
0.782,0.20,0.33,-0.20,0.46,-0.20,-0.53
0.782,0.30,0.39,-0.25,0.46,-0.20,-0.53
0.786,0.30,0.39,-0.25,0.46,-0.19,-0.55
0.787,0.30,0.39,-0.25,0.46,-0.18,-0.56
0.788,0.30,0.51,-0.25,0.46,-0.18,-0.56
0.79,0.30,0.51,-0.25,0.47,-0.18,-0.58
0.79,0.24,0.54,-0.23,0.47,-0.18,-0.58
0.791,0.24,0.54,-0.23,0.47,-0.18,-0.59
0.795,0.24,0.54,-0.23,0.47,-0.19,-0.60
0.795,0.09,0.48,-0.17,0.47,-0.19,-0.60
0.799,0.09,0.48,-0.17,0.47,-0.22,-0.60
0.799,0.09,0.48,-0.17,0.46,-0.25,-0.59
0.799,-0.17,0.31,-0.16,0.46,-0.25,-0.59
0.802,-0.17,0.31,-0.16,0.46,-0.29,-0.59
0.802,-0.20,0.12,-0.21,0.46,-0.29,-0.59
0.807,-0.20,0.12,-0.21,0.46,-0.33,-0.59
0.807,-0.20,0.12,-0.21,0.46,-0.37,-0.59
0.807,-0.16,-0.07,-0.08,0.46,-0.37,-0.59
0.812,-0.16,-0.07,-0.08,0.47,-0.40,-0.58
0.812,-0.04,-0.23,-0.01,0.47,-0.40,-0.58
0.812,-0.04,-0.23,-0.01,0.47,-0.44,-0.58
0.815,0.11,-0.36,-0.02,0.47,-0.44,-0.58
0.815,0.11,-0.36,-0.02,0.47,-0.48,-0.59
0.819,0.11,-0.36,-0.02,0.47,-0.52,-0.59
0.82,0.14,-0.43,-0.14,0.47,-0.52,-0.59
0.82,0.14,-0.43,-0.14,0.46,-0.55,-0.59
0.822,0.14,-0.43,-0.14,0.45,-0.59,-0.60
0.822,0.23,-0.48,-0.32,0.45,-0.59,-0.60
0.826,0.23,-0.48,-0.32,0.44,-0.63,-0.60
0.827,0.23,-0.48,-0.32,0.43,-0.69,-0.60
0.827,0.02,-0.42,-0.41,0.43,-0.69,-0.60
0.831,0.02,-0.42,-0.41,0.42,-0.74,-0.59
0.831,-0.18,-0.36,-0.43,0.42,-0.74,-0.59
0.832,-0.18,-0.36,-0.43,0.41,-0.80,-0.59
0.836,-0.18,-0.36,-0.43,0.40,-0.86,-0.58
0.836,-0.29,-0.29,-0.41,0.40,-0.86,-0.58
0.839,-0.29,-0.29,-0.41,0.38,-0.92,-0.58
0.839,-0.38,-0.15,-0.45,0.38,-0.92,-0.58
0.839,-0.38,-0.15,-0.45,0.37,-0.97,-0.57
0.842,-0.38,-0.15,-0.45,0.35,-1.03,-0.56
0.843,-0.46,0.06,-0.49,0.35,-1.03,-0.56
0.846,-0.46,0.06,-0.49,0.34,-1.08,-0.55
0.847,-0.53,0.27,-0.55,0.34,-1.08,-0.55
0.847,-0.53,0.27,-0.55,0.32,-1.12,-0.54
0.851,-0.53,0.27,-0.55,0.31,-1.16,-0.53
0.851,-0.53,0.27,-0.55,0.29,-1.19,-0.52
0.851,-0.56,0.44,-0.59,0.29,-1.19,-0.52
0.855,-0.56,0.44,-0.59,0.28,-1.20,-0.52
0.855,-0.39,0.58,-0.59,0.28,-1.20,-0.52
0.859,-0.39,0.58,-0.59,0.26,-1.22,-0.52
0.859,-0.39,0.58,-0.59,0.25,-1.23,-0.52
0.86,-0.20,0.61,-0.60,0.25,-1.23,-0.52
0.863,-0.20,0.61,-0.60,0.24,-1.23,-0.52
0.864,0.06,0.60,-0.52,0.24,-1.23,-0.52
0.867,0.06,0.60,-0.52,0.23,-1.23,-0.53
0.869,0.15,0.61,-0.36,0.23,-1.23,-0.53
0.87,0.15,0.61,-0.36,0.23,-1.22,-0.54
0.871,0.15,0.61,-0.36,0.23,-1.21,-0.55
0.871,0.21,0.61,-0.21,0.23,-1.21,-0.55
0.871,0.21,0.61,-0.21,0.23,-1.20,-0.56
0.875,0.21,0.61,-0.21,0.23,-1.18,-0.58
0.876,0.26,0.62,-0.14,0.23,-1.18,-0.58
0.878,0.26,0.62,-0.14,0.23,-1.17,-0.59
0.879,0.26,0.62,-0.14,0.24,-1.16,-0.61
0.879,0.41,0.60,-0.08,0.24,-1.16,-0.61
0.882,0.41,0.60,-0.08,0.24,-1.15,-0.63
0.883,0.52,0.67,-0.09,0.24,-1.15,-0.63
0.887,0.52,0.67,-0.09,0.24,-1.15,-0.65
0.888,0.50,0.73,-0.08,0.24,-1.15,-0.65
0.888,0.50,0.73,-0.08,0.24,-1.14,-0.68
0.89,0.50,0.73,-0.08,0.23,-1.14,-0.71
0.891,0.50,0.73,-0.08,0.23,-1.13,-0.74
0.891,0.64,0.81,-0.21,0.23,-1.13,-0.74
0.895,0.64,0.81,-0.21,0.22,-1.12,-0.79
0.895,0.99,0.94,-0.25,0.22,-1.12,-0.79
0.899,0.99,0.94,-0.25,0.22,-1.11,-0.82
0.899,0.72,1.03,-0.17,0.22,-1.11,-0.82
0.899,0.72,1.03,-0.17,0.21,-1.10,-0.86
0.903,0.72,1.03,-0.17,0.21,-1.08,-0.90
0.903,0.59,1.08,-0.07,0.21,-1.08,-0.90
0.907,0.59,1.08,-0.07,0.20,-1.05,-0.94
0.907,0.76,1.03,0.07,0.20,-1.05,-0.94
0.908,0.76,1.03,0.07,0.20,-1.02,-0.99
0.911,0.76,1.03,0.07,0.20,-0.98,-1.03
0.911,0.75,1.00,0.29,0.20,-0.98,-1.03
0.934,0.75,1.00,0.29,0.21,-0.94,-1.08
0.934,0.75,1.00,0.29,0.21,-0.90,-1.13
0.935,0.82,0.97,0.49,0.21,-0.90,-1.13
0.935,0.82,0.97,0.49,0.21,-0.84,-1.18
0.935,0.82,0.97,0.49,0.21,-0.78,-1.22
0.936,0.77,0.94,0.52,0.21,-0.78,-1.22
0.936,0.77,0.94,0.52,0.21,-0.71,-1.26
0.936,0.52,0.94,0.47,0.21,-0.71,-1.26
0.937,0.52,0.94,0.47,0.21,-0.64,-1.30
0.937,0.52,0.94,0.47,0.21,-0.57,-1.33
0.937,0.28,0.98,0.42,0.21,-0.57,-1.33
0.937,0.28,0.98,0.42,0.20,-0.50,-1.35
0.938,0.28,0.98,0.42,0.20,-0.43,-1.37
0.938,-0.01,1.07,0.38,0.20,-0.43,-1.37
0.938,-0.01,1.07,0.38,0.19,-0.37,-1.39
0.938,-0.16,1.15,0.43,0.19,-0.37,-1.39
0.938,-0.16,1.15,0.43,0.18,-0.31,-1.41
0.939,-0.16,1.15,0.43,0.18,-0.26,-1.43
0.939,-0.24,1.24,0.49,0.18,-0.26,-1.43
0.942,-0.24,1.24,0.49,0.17,-0.21,-1.45
0.943,-0.11,1.21,0.38,0.17,-0.21,-1.45
0.948,-0.11,1.21,0.38,0.15,-0.16,-1.47
0.949,-0.09,1.26,0.25,0.15,-0.16,-1.47
0.949,-0.09,1.26,0.25,0.14,-0.13,-1.49
0.951,-0.09,1.26,0.25,0.12,-0.10,-1.52
0.951,-0.03,1.33,0.18,0.12,-0.10,-1.52
0.952,-0.03,1.33,0.18,0.11,-0.09,-1.54
0.955,-0.04,1.32,0.25,0.11,-0.09,-1.54
0.955,-0.04,1.32,0.25,0.09,-0.09,-1.57
0.958,-0.04,1.32,0.25,0.08,-0.09,-1.58
0.959,-0.04,1.32,0.25,0.07,-0.11,-1.60
0.959,-0.25,1.35,0.35,0.07,-0.11,-1.60
0.964,-0.25,1.35,0.35,0.06,-0.13,-1.61
0.965,-0.34,1.30,0.45,0.06,-0.13,-1.61
0.967,-0.42,1.22,0.55,0.06,-0.13,-1.61
0.967,-0.42,1.22,0.55,0.06,-0.16,-1.62
0.967,-0.42,1.22,0.55,0.05,-0.19,-1.64
0.971,-0.42,1.22,0.55,0.05,-0.22,-1.64
0.971,-0.54,1.08,0.58,0.05,-0.22,-1.64
0.971,-0.54,1.08,0.58,0.04,-0.24,-1.65
0.974,-0.54,1.08,0.58,0.03,-0.26,-1.66
0.975,-0.59,0.89,0.52,0.03,-0.26,-1.66
0.981,-0.59,0.89,0.52,0.02,-0.26,-1.67
0.981,-0.59,0.89,0.52,0.01,-0.25,-1.69
0.982,-0.49,0.68,0.36,0.01,-0.25,-1.69
0.985,-0.49,0.68,0.36,0.01,-0.23,-1.70
0.985,-0.42,0.53,0.29,0.01,-0.23,-1.70
0.986,-0.42,0.53,0.29,-0.01,-0.19,-1.71
0.987,-0.30,0.38,0.22,-0.01,-0.19,-1.71
0.987,-0.30,0.38,0.22,-0.02,-0.15,-1.73
0.99,-0.30,0.38,0.22,-0.03,-0.11,-1.74
0.99,-0.23,0.30,0.04,-0.03,-0.11,-1.74
0.991,-0.23,0.30,0.04,-0.04,-0.07,-1.74
0.995,-0.23,0.30,0.04,-0.06,-0.04,-1.74
0.995,-0.45,0.32,-0.12,-0.06,-0.04,-1.74
1.001,-0.45,0.32,-0.12,-0.08,-0.02,-1.72
1.001,-0.45,0.32,-0.12,-0.10,-0.01,-1.70
1.001,-0.85,0.41,-0.30,-0.10,-0.01,-1.70
1.002,-0.85,0.41,-0.30,-0.12,-0.01,-1.67
1.003,-1.18,0.51,-0.41,-0.12,-0.01,-1.67
1.007,-1.18,0.51,-0.41,-0.14,-0.02,-1.63
1.007,-1.32,0.50,-0.46,-0.14,-0.02,-1.63
1.007,-1.32,0.50,-0.46,-0.16,-0.04,-1.58
1.01,-1.32,0.50,-0.46,-0.19,-0.09,-1.53
1.011,-1.32,0.50,-0.46,-0.21,-0.16,-1.47
1.011,-1.43,0.22,-0.48,-0.21,-0.16,-1.47
1.014,-2.08,-0.33,-0.47,-0.21,-0.16,-1.47
1.015,-2.08,-0.33,-0.47,-0.23,-0.27,-1.38
1.02,-2.08,-0.33,-0.47,-0.25,-0.40,-1.26
1.02,-2.08,-0.33,-0.47,-0.25,-0.53,-1.15
1.021,-2.85,-1.33,-0.33,-0.25,-0.53,-1.15
1.022,-2.85,-1.33,-0.33,-0.24,-0.64,-1.04
1.023,-2.62,-1.63,0.46,-0.24,-0.64,-1.04
1.026,-2.62,-1.63,0.46,-0.22,-0.74,-0.95
1.027,-2.62,-1.63,0.46,-0.20,-0.84,-0.86
1.027,-2.03,-1.66,0.93,-0.20,-0.84,-0.86
1.031,-2.03,-1.66,0.93,-0.18,-0.93,-0.78
1.032,-2.03,-1.66,0.93,-0.16,-1.00,-0.71
1.032,-1.33,-1.55,0.96,-0.16,-1.00,-0.71
1.035,-0.88,-1.25,0.73,-0.16,-1.00,-0.71
1.036,-0.88,-1.25,0.73,-0.14,-1.07,-0.64
1.039,-0.88,-1.25,0.73,-0.13,-1.12,-0.58
1.039,-0.88,-1.25,0.73,-0.11,-1.16,-0.51
1.04,-0.77,-0.83,0.54,-0.11,-1.16,-0.51
1.043,-0.77,-0.83,0.54,-0.10,-1.19,-0.44
1.043,-0.82,-0.35,0.39,-0.10,-1.19,-0.44
1.047,-0.82,-0.35,0.39,-0.09,-1.19,-0.38
1.048,-0.82,-0.35,0.39,-0.08,-1.18,-0.32
1.048,-0.72,0.14,0.30,-0.08,-1.18,-0.32
1.051,-0.72,0.14,0.30,-0.07,-1.15,-0.27
1.051,-0.72,0.14,0.30,-0.06,-1.10,-0.21
1.051,-0.64,0.51,0.30,-0.06,-1.10,-0.21
1.055,-0.64,0.51,0.30,-0.04,-1.04,-0.17
1.056,-0.57,0.72,0.36,-0.04,-1.04,-0.17
1.059,-0.57,0.72,0.36,-0.03,-0.96,-0.13
1.06,-0.57,0.72,0.36,-0.01,-0.87,-0.10
1.06,-0.34,0.90,0.39,-0.01,-0.87,-0.10
1.062,-0.34,0.90,0.39,-0.01,-0.77,-0.08
1.065,-0.18,0.93,0.28,-0.01,-0.77,-0.08
1.066,-0.18,0.93,0.28,-0.00,-0.68,-0.05
1.087,-0.21,0.91,0.11,-0.00,-0.68,-0.05
1.087,-0.21,0.91,0.11,0.00,-0.60,-0.03
1.088,-0.21,0.91,0.11,0.00,-0.52,-0.00
1.088,-0.37,0.81,-0.07,0.00,-0.52,-0.00
1.088,-0.37,0.81,-0.07,0.00,-0.45,0.02
1.089,-0.37,0.81,-0.07,-0.00,-0.39,0.04
1.089,-0.35,0.81,-0.14,-0.00,-0.39,0.04
1.089,-0.35,0.81,-0.14,-0.01,-0.32,0.06
1.09,-0.35,0.81,-0.14,-0.02,-0.27,0.08
1.09,-0.57,0.86,-0.25,-0.02,-0.27,0.08
1.09,-0.57,0.86,-0.25,-0.03,-0.21,0.11
1.09,-0.95,1.05,-0.42,-0.03,-0.21,0.11
1.091,-0.95,1.05,-0.42,-0.05,-0.17,0.14
1.091,-0.95,1.05,-0.42,-0.07,-0.14,0.17
1.091,-1.04,1.24,-0.61,-0.07,-0.14,0.17
1.092,-1.04,1.24,-0.61,-0.09,-0.11,0.19
1.092,-1.04,1.24,-0.61,-0.10,-0.09,0.19
1.092,-0.70,1.42,-0.60,-0.10,-0.09,0.19
1.097,-0.70,1.42,-0.60,-0.12,-0.09,0.18
1.098,-0.14,1.50,-0.63,-0.12,-0.09,0.18
1.098,-0.14,1.50,-0.63,-0.14,-0.10,0.17
1.099,-0.14,1.50,-0.63,-0.15,-0.13,0.15
1.099,0.26,1.50,-0.59,-0.15,-0.13,0.15
1.102,0.26,1.50,-0.59,-0.16,-0.16,0.12
1.103,0.58,1.50,-0.46,-0.16,-0.16,0.12
1.106,0.58,1.50,-0.46,-0.17,-0.19,0.09
1.107,0.58,1.50,-0.46,-0.17,-0.23,0.06
1.107,0.64,1.43,-0.29,-0.17,-0.23,0.06
1.11,0.64,1.43,-0.29,-0.17,-0.27,0.02
1.11,0.72,1.34,-0.09,-0.17,-0.27,0.02
1.111,0.72,1.34,-0.09,-0.17,-0.31,-0.02
1.116,0.72,1.34,-0.09,-0.16,-0.35,-0.06
1.116,0.85,1.26,0.08,-0.16,-0.35,-0.06
1.118,0.85,1.26,0.08,-0.16,-0.39,-0.10
1.119,0.85,1.26,0.08,-0.15,-0.43,-0.14
1.119,0.84,1.12,0.15,-0.15,-0.43,-0.14
1.123,0.84,1.12,0.15,-0.14,-0.47,-0.18
1.123,0.71,1.05,0.21,-0.14,-0.47,-0.18
1.126,0.71,1.05,0.21,-0.13,-0.50,-0.22
1.127,0.71,1.05,0.21,-0.12,-0.53,-0.25
1.127,0.46,0.93,0.19,-0.12,-0.53,-0.25
1.132,0.46,0.93,0.19,-0.11,-0.55,-0.28
1.133,0.14,0.83,0.26,-0.11,-0.55,-0.28
1.133,0.14,0.83,0.26,-0.09,-0.55,-0.31
1.135,0.14,0.83,0.26,-0.07,-0.54,-0.33
1.135,-0.16,0.70,0.35,-0.07,-0.54,-0.33
1.139,-0.16,0.70,0.35,-0.05,-0.52,-0.35
1.139,-0.30,0.58,0.40,-0.05,-0.52,-0.35
1.139,-0.30,0.58,0.40,-0.02,-0.49,-0.37
1.14,-0.30,0.58,0.40,0.00,-0.45,-0.39
1.142,-0.37,0.42,0.48,0.00,-0.45,-0.39
1.145,-0.37,0.42,0.48,0.03,-0.41,-0.41
1.149,-0.37,0.42,0.48,0.06,-0.36,-0.43
1.149,-0.40,0.32,0.54,0.06,-0.36,-0.43
1.151,-0.40,0.32,0.54,0.08,-0.32,-0.45
1.152,-0.42,0.20,0.43,0.08,-0.32,-0.45
1.152,-0.42,0.20,0.43,0.10,-0.27,-0.47
1.155,-0.42,0.20,0.43,0.13,-0.22,-0.49
1.155,-0.47,0.11,0.33,0.13,-0.22,-0.49
1.16,-0.58,0.06,0.25,0.13,-0.22,-0.49
1.16,-0.58,0.06,0.25,0.15,-0.17,-0.50
1.16,-0.58,0.06,0.25,0.17,-0.13,-0.52
1.162,-0.58,0.06,0.25,0.19,-0.09,-0.52
1.168,-0.75,0.04,0.20,0.19,-0.09,-0.52
1.168,-0.75,0.04,0.20,0.21,-0.05,-0.53
1.168,-0.75,0.04,0.20,0.24,-0.01,-0.53
1.171,-0.86,0.04,0.17,0.24,-0.01,-0.53
1.171,-0.86,0.04,0.17,0.26,0.04,-0.54
1.178,-0.85,0.02,0.25,0.26,0.04,-0.54
1.178,-0.85,0.02,0.25,0.28,0.10,-0.54
1.178,-0.85,0.02,0.25,0.31,0.16,-0.54
1.179,-0.85,0.02,0.25,0.33,0.22,-0.55
1.179,-0.85,0.02,0.23,0.33,0.22,-0.55
1.181,-0.85,0.02,0.23,0.35,0.28,-0.55
1.182,-0.65,0.12,0.15,0.35,0.28,-0.55
1.182,-0.65,0.12,0.15,0.37,0.35,-0.55
1.184,-0.54,0.19,0.08,0.37,0.35,-0.55
1.184,-0.54,0.19,0.08,0.39,0.43,-0.56
1.189,-0.32,0.35,0.08,0.39,0.43,-0.56
1.189,-0.32,0.35,0.08,0.41,0.51,-0.57
1.189,-0.32,0.35,0.08,0.43,0.60,-0.58
1.193,0.02,0.41,0.10,0.43,0.60,-0.58
1.193,0.02,0.41,0.10,0.46,0.69,-0.59
1.196,0.48,0.56,0.09,0.46,0.69,-0.59
1.197,0.48,0.56,0.09,0.48,0.77,-0.62
1.197,0.48,0.56,0.09,0.51,0.86,-0.64
1.2,0.48,0.56,0.09,0.54,0.95,-0.66
1.201,0.80,0.57,0.28,0.54,0.95,-0.66
1.201,0.80,0.57,0.28,0.57,1.03,-0.69
1.205,1.02,0.64,0.36,0.57,1.03,-0.69
1.205,1.02,0.64,0.36,0.60,1.11,-0.71
1.209,1.10,0.70,0.41,0.60,1.11,-0.71
1.209,1.10,0.70,0.41,0.64,1.19,-0.73
1.209,1.10,0.70,0.41,0.68,1.27,-0.74
1.212,1.10,0.70,0.41,0.72,1.35,-0.74
1.213,0.85,0.69,0.63,0.72,1.35,-0.74
1.216,0.50,0.70,0.87,0.72,1.35,-0.74
1.216,0.50,0.70,0.87,0.77,1.43,-0.74
1.217,0.50,0.70,0.87,0.81,1.51,-0.72
1.221,0.50,0.70,0.87,0.86,1.59,-0.70
1.238,0.13,0.71,1.01,0.86,1.59,-0.70
1.238,0.13,0.71,1.01,0.91,1.68,-0.68
1.238,-0.09,0.64,1.16,0.91,1.68,-0.68
1.238,-0.09,0.64,1.16,0.96,1.77,-0.65
1.239,-0.07,0.60,1.27,0.96,1.77,-0.65
1.239,-0.07,0.60,1.27,1.01,1.86,-0.63
1.239,-0.07,0.60,1.27,1.07,1.95,-0.60
1.239,0.02,0.57,1.34,1.07,1.95,-0.60
1.239,0.02,0.57,1.34,1.11,2.03,-0.58
1.24,0.17,0.56,1.26,1.11,2.03,-0.58
1.24,0.17,0.56,1.26,1.16,2.10,-0.55
1.24,0.17,0.56,1.26,1.20,2.15,-0.53
1.24,0.17,0.56,1.26,1.23,2.20,-0.51
1.24,0.37,0.53,1.06,1.23,2.20,-0.51
1.241,0.37,0.53,1.06,1.26,2.24,-0.49
1.244,0.48,0.52,0.86,1.26,2.24,-0.49
1.244,0.48,0.52,0.86,1.28,2.27,-0.48
1.25,0.48,0.52,0.86,1.29,2.29,-0.47
1.251,0.73,0.50,0.64,1.29,2.29,-0.47
1.251,0.73,0.50,0.64,1.30,2.30,-0.46
1.252,1.02,0.45,0.36,1.30,2.30,-0.46
1.252,1.02,0.45,0.36,1.30,2.29,-0.46
1.256,1.02,0.45,0.36,1.30,2.27,-0.46
1.256,1.19,0.47,0.06,1.30,2.27,-0.46
1.256,1.19,0.47,0.06,1.28,2.24,-0.46
1.26,1.19,0.47,0.06,1.26,2.21,-0.47
1.26,1.41,0.43,-0.29,1.26,2.21,-0.47
1.26,1.41,0.43,-0.29,1.23,2.16,-0.47
1.265,1.50,0.39,-0.62,1.23,2.16,-0.47
1.265,1.50,0.39,-0.62,1.19,2.10,-0.48
1.269,1.50,0.39,-0.62,1.15,2.03,-0.48
1.269,1.45,0.38,-0.91,1.15,2.03,-0.48
1.27,1.45,0.38,-0.91,1.10,1.96,-0.48
1.273,1.45,0.35,-1.18,1.10,1.96,-0.48
1.273,1.45,0.35,-1.18,1.05,1.88,-0.49
1.276,1.37,0.32,-1.42,1.05,1.88,-0.49
1.276,1.37,0.32,-1.42,0.99,1.79,-0.48
1.277,1.37,0.32,-1.42,0.92,1.71,-0.48
1.282,1.37,0.32,-1.42,0.85,1.62,-0.48
1.283,1.33,0.30,-1.65,0.85,1.62,-0.48
1.283,1.33,0.30,-1.65,0.78,1.53,-0.48
1.284,1.31,0.25,-1.81,0.78,1.53,-0.48
1.285,1.31,0.25,-1.81,0.70,1.44,-0.47
1.288,1.31,0.25,-1.81,0.62,1.36,-0.46
1.289,1.23,0.20,-1.91,0.62,1.36,-0.46
1.289,1.23,0.20,-1.91,0.55,1.27,-0.46
1.292,1.23,0.20,-1.91,0.47,1.19,-0.46
1.292,1.31,0.15,-1.86,0.47,1.19,-0.46
1.296,1.52,0.14,-1.73,0.47,1.19,-0.46
1.296,1.52,0.14,-1.73,0.40,1.10,-0.46
1.296,1.52,0.14,-1.73,0.33,1.02,-0.46
1.301,1.52,0.14,-1.73,0.26,0.94,-0.47
1.302,1.78,0.12,-1.58,0.26,0.94,-0.47
1.302,1.78,0.12,-1.58,0.20,0.87,-0.47
1.305,1.84,0.06,-1.46,0.20,0.87,-0.47
1.305,1.84,0.06,-1.46,0.14,0.81,-0.47
1.309,1.72,0.04,-1.30,0.14,0.81,-0.47
1.309,1.72,0.04,-1.30,0.08,0.75,-0.47
1.31,1.72,0.04,-1.30,0.02,0.70,-0.46
1.312,1.51,0.06,-1.15,0.02,0.70,-0.46
1.313,1.51,0.06,-1.15,-0.03,0.66,-0.45
1.318,1.32,0.13,-0.97,-0.03,0.66,-0.45
1.318,1.32,0.13,-0.97,-0.07,0.63,-0.43
1.318,1.32,0.13,-0.97,-0.12,0.60,-0.40
1.321,1.32,0.13,-0.97,-0.15,0.57,-0.38
1.321,1.14,0.19,-0.77,-0.15,0.57,-0.38
1.321,1.14,0.19,-0.77,-0.19,0.55,-0.35
1.324,1.11,0.34,-0.52,-0.19,0.55,-0.35
1.324,1.11,0.34,-0.52,-0.21,0.52,-0.32
1.329,1.11,0.34,-0.52,-0.24,0.50,-0.30
1.329,1.11,0.34,-0.52,-0.26,0.48,-0.28
1.33,1.25,0.52,-0.28,-0.26,0.48,-0.28
1.333,1.35,0.65,-0.08,-0.26,0.48,-0.28
1.334,1.35,0.65,-0.08,-0.27,0.45,-0.25
1.337,1.32,0.71,0.11,-0.27,0.45,-0.25
1.338,1.32,0.71,0.11,-0.29,0.43,-0.23
1.338,1.32,0.71,0.11,-0.30,0.40,-0.20
1.339,1.32,0.71,0.11,-0.31,0.38,-0.17
1.34,1.13,0.70,0.19,-0.31,0.38,-0.17
1.341,1.13,0.70,0.19,-0.33,0.35,-0.14
1.343,0.96,0.62,0.17,-0.33,0.35,-0.14
1.345,0.96,0.62,0.17,-0.35,0.33,-0.11
1.348,0.96,0.62,0.17,-0.37,0.31,-0.07
1.348,0.81,0.47,0.06,-0.37,0.31,-0.07
1.35,0.81,0.47,0.06,-0.39,0.29,-0.04
1.351,0.81,0.47,0.06,-0.41,0.27,-0.01
1.351,0.68,0.29,-0.10,-0.41,0.27,-0.01
1.356,0.55,0.16,-0.22,-0.41,0.27,-0.01
1.356,0.55,0.16,-0.22,-0.44,0.26,0.02
1.359,0.55,0.16,-0.22,-0.47,0.25,0.04
1.359,0.55,0.16,-0.22,-0.49,0.23,0.07
1.36,0.49,0.11,-0.31,-0.49,0.23,0.07
1.363,0.49,0.11,-0.31,-0.52,0.22,0.09
1.363,0.46,-0.01,-0.36,-0.52,0.22,0.09
1.366,0.46,-0.01,-0.36,-0.55,0.21,0.12
1.367,0.46,-0.01,-0.36,-0.58,0.20,0.14
1.368,0.48,-0.01,-0.40,-0.58,0.20,0.14
1.371,0.48,-0.01,-0.40,-0.61,0.19,0.16
1.371,0.48,-0.01,-0.40,-0.63,0.18,0.18
1.372,0.37,-0.00,-0.41,-0.63,0.18,0.18
1.388,0.37,-0.00,-0.41,-0.66,0.18,0.20
1.388,0.28,0.02,-0.37,-0.66,0.18,0.20
1.388,0.28,0.02,-0.37,-0.69,0.17,0.22
1.389,0.13,0.08,-0.35,-0.69,0.17,0.22
1.389,0.13,0.08,-0.35,-0.71,0.16,0.25
1.389,0.06,0.15,-0.27,-0.71,0.16,0.25
1.389,0.06,0.15,-0.27,-0.74,0.14,0.27
1.389,0.06,0.15,-0.27,-0.76,0.12,0.29
1.389,0.06,0.15,-0.27,-0.78,0.11,0.31
1.39,-0.02,0.27,-0.18,-0.78,0.11,0.31
1.391,-0.02,0.27,-0.18,-0.80,0.08,0.33
1.393,-0.02,0.39,-0.05,-0.80,0.08,0.33
1.393,-0.02,0.39,-0.05,-0.82,0.06,0.34
1.395,-0.02,0.39,-0.05,-0.83,0.03,0.34
1.395,0.19,0.49,0.10,-0.83,0.03,0.34
1.4,0.53,0.64,0.18,-0.83,0.03,0.34
1.403,0.53,0.64,0.18,-0.84,-0.00,0.34
1.403,0.53,0.64,0.18,-0.86,-0.03,0.34
1.403,0.53,0.64,0.18,-0.87,-0.06,0.32
1.403,0.82,0.74,0.20,-0.87,-0.06,0.32
1.406,0.82,0.74,0.20,-0.88,-0.08,0.30
1.407,1.05,0.93,0.22,-0.88,-0.08,0.30
1.407,1.05,0.93,0.22,-0.89,-0.11,0.28
1.41,1.05,0.93,0.22,-0.90,-0.13,0.26
1.411,1.23,1.04,0.28,-0.90,-0.13,0.26
1.412,1.23,1.04,0.28,-0.90,-0.16,0.23
1.419,1.23,1.04,0.28,-0.91,-0.18,0.20
1.42,1.31,1.16,0.34,-0.91,-0.18,0.20
1.421,1.31,1.22,0.40,-0.91,-0.18,0.20
1.421,1.31,1.22,0.40,-0.91,-0.20,0.18
1.421,1.31,1.22,0.40,-0.92,-0.23,0.15
1.422,1.31,1.22,0.40,-0.93,-0.25,0.13
1.423,1.04,1.24,0.35,-0.93,-0.25,0.13
1.426,1.04,1.24,0.35,-0.94,-0.26,0.12
1.427,0.74,1.30,0.29,-0.94,-0.26,0.12
1.427,0.74,1.30,0.29,-0.95,-0.28,0.11
1.43,0.74,1.30,0.29,-0.95,-0.30,0.11
1.43,0.42,1.30,0.33,-0.95,-0.30,0.11
1.43,0.42,1.30,0.33,-0.96,-0.31,0.11
1.435,0.07,1.32,0.33,-0.96,-0.31,0.11
1.435,0.07,1.32,0.33,-0.97,-0.32,0.12
1.438,0.07,1.32,0.33,-0.97,-0.34,0.13
1.439,0.07,1.32,0.33,-0.98,-0.36,0.15
1.439,-0.40,1.26,0.35,-0.98,-0.36,0.15
1.443,-0.40,1.26,0.35,-0.99,-0.38,0.18
1.443,-0.83,1.16,0.27,-0.99,-0.38,0.18
1.447,-0.83,1.16,0.27,-1.00,-0.39,0.21
1.447,-0.83,1.16,0.27,-1.02,-0.41,0.24
1.447,-1.15,1.01,0.12,-1.02,-0.41,0.24
1.45,-1.15,1.01,0.12,-1.03,-0.42,0.28
1.451,-1.15,1.01,0.12,-1.05,-0.42,0.32
1.451,-1.48,0.84,-0.09,-1.05,-0.42,0.32
1.455,-1.76,0.71,-0.26,-1.05,-0.42,0.32
1.456,-1.76,0.71,-0.26,-1.07,-0.43,0.36
1.459,-1.76,0.71,-0.26,-1.10,-0.44,0.40
1.46,-1.84,0.56,-0.39,-1.10,-0.44,0.40
1.46,-1.84,0.56,-0.39,-1.12,-0.45,0.43
1.463,-1.84,0.56,-0.39,-1.14,-0.46,0.47
1.463,-1.85,0.48,-0.40,-1.14,-0.46,0.47
1.467,-1.85,0.48,-0.40,-1.16,-0.48,0.49
1.467,-1.85,0.48,-0.40,-1.18,-0.49,0.51
1.467,-1.63,0.38,-0.36,-1.18,-0.49,0.51
1.471,-1.63,0.38,-0.36,-1.19,-0.51,0.52
1.471,-1.63,0.38,-0.36,-1.20,-0.53,0.52
1.471,-1.21,0.36,-0.21,-1.20,-0.53,0.52
1.475,-0.84,0.34,-0.09,-1.20,-0.53,0.52
1.476,-0.84,0.34,-0.09,-1.21,-0.55,0.51
1.478,-0.84,0.34,-0.09,-1.21,-0.57,0.50
1.479,-0.84,0.34,-0.09,-1.22,-0.59,0.49
1.48,-0.64,0.39,0.02,-1.22,-0.59,0.49
1.484,-0.64,0.39,0.02,-1.22,-0.61,0.47
1.485,-0.63,0.42,0.08,-1.22,-0.61,0.47
1.488,-0.63,0.42,0.08,-1.22,-0.63,0.46
1.488,-0.62,0.49,0.11,-1.22,-0.63,0.46
1.488,-0.62,0.49,0.11,-1.22,-0.65,0.44
1.491,-0.62,0.49,0.11,-1.22,-0.66,0.43
1.491,-0.62,0.49,0.11,-1.22,-0.66,0.42
1.491,-0.66,0.56,0.06,-1.22,-0.66,0.42
1.495,-0.66,0.56,0.06,-1.22,-0.66,0.41
1.496,-0.84,0.65,-0.02,-1.22,-0.66,0.41
1.499,-0.84,0.65,-0.02,-1.22,-0.65,0.41
1.499,-0.84,0.65,-0.02,-1.23,-0.64,0.41
1.499,-1.14,0.74,-0.07,-1.23,-0.64,0.41
1.503,-1.14,0.74,-0.07,-1.23,-0.63,0.41
1.504,-1.39,0.82,-0.15,-1.23,-0.63,0.41
1.507,-1.39,0.82,-0.15,-1.23,-0.61,0.41
1.508,-1.39,0.78,-0.13,-1.23,-0.61,0.41
1.508,-1.39,0.78,-0.13,-1.23,-0.59,0.40
1.511,-1.39,0.78,-0.13,-1.22,-0.56,0.35
1.511,-0.32,0.34,-0.17,-1.22,-0.56,0.35
1.511,-0.32,0.34,-0.17,-1.21,-0.54,0.23
1.515,-0.32,0.34,-0.17,-1.20,-0.53,0.05
1.516,3.72,-1.18,0.32,-1.20,-0.53,0.05
1.518,3.72,-1.18,0.32,-1.18,-0.52,-0.12
1.519,3.72,-1.18,0.32,-1.15,-0.51,-0.28
1.52,3.97,-1.38,0.43,-1.15,-0.51,-0.28
1.523,3.97,-1.38,0.43,-1.13,-0.49,-0.44
1.524,3.64,-1.32,0.42,-1.13,-0.49,-0.44
1.527,3.64,-1.32,0.42,-1.11,-0.47,-0.59
1.528,3.35,-1.30,0.37,-1.11,-0.47,-0.59
1.551,3.35,-1.30,0.37,-1.09,-0.45,-0.73
1.552,3.35,-1.30,0.37,-1.07,-0.43,-0.86
1.552,3.35,-1.30,0.37,-1.04,-0.40,-0.98
1.552,3.00,-1.30,0.30,-1.04,-0.40,-0.98
1.553,3.00,-1.30,0.30,-1.02,-0.38,-1.09
1.553,2.71,-1.29,0.24,-1.02,-0.38,-1.09
1.553,2.71,-1.29,0.24,-0.99,-0.35,-1.20
1.554,2.71,-1.29,0.24,-0.97,-0.32,-1.30
1.554,2.43,-1.27,0.18,-0.97,-0.32,-1.30
1.554,2.43,-1.27,0.18,-0.94,-0.28,-1.40
1.555,2.19,-1.22,0.14,-0.94,-0.28,-1.40
1.555,2.19,-1.22,0.14,-0.92,-0.25,-1.49
1.555,2.19,-1.22,0.14,-0.89,-0.20,-1.57
1.555,2.00,-1.16,0.08,-0.89,-0.20,-1.57
1.556,2.00,-1.16,0.08,-0.86,-0.15,-1.65
1.556,2.00,-1.16,0.08,-0.84,-0.10,-1.73
1.556,1.80,-1.14,0.07,-0.84,-0.10,-1.73
1.557,1.66,-1.10,0.03,-0.84,-0.10,-1.73
1.557,1.66,-1.10,0.03,-0.81,-0.04,-1.80
1.562,1.66,-1.10,0.03,-0.78,0.02,-1.87
1.563,1.53,-1.07,-0.01,-0.78,0.02,-1.87
1.563,1.53,-1.07,-0.01,-0.75,0.09,-1.94
1.563,1.53,-1.07,-0.01,-0.72,0.17,-2.01
1.564,1.48,-1.05,-0.03,-0.72,0.17,-2.01
1.568,1.48,-1.05,-0.03,-0.68,0.25,-2.07
1.569,1.48,-1.05,-0.03,-0.65,0.34,-2.13
1.569,1.44,-0.97,-0.03,-0.65,0.34,-2.13
1.57,1.44,-0.97,-0.03,-0.62,0.44,-2.19
1.571,1.44,-0.97,-0.03,-0.58,0.54,-2.25
1.571,1.37,-0.97,-0.06,-0.58,0.54,-2.25
1.575,1.34,-0.93,-0.10,-0.58,0.54,-2.25
1.575,1.34,-0.93,-0.10,-0.55,0.64,-2.31
1.584,1.34,-0.93,-0.10,-0.51,0.74,-2.37
1.585,1.34,-0.93,-0.10,-0.47,0.85,-2.43
1.585,1.33,-0.91,-0.12,-0.47,0.85,-2.43
1.586,1.33,-0.91,-0.12,-0.43,0.96,-2.48
1.586,1.32,-0.88,-0.14,-0.43,0.96,-2.48
1.587,1.32,-0.90,-0.19,-0.43,0.96,-2.48
1.587,1.32,-0.90,-0.19,-0.39,1.08,-2.54
1.587,1.32,-0.90,-0.19,-0.35,1.19,-2.59
1.591,1.32,-0.90,-0.19,-0.30,1.30,-2.65
1.591,1.30,-0.90,-0.26,-0.30,1.30,-2.65
1.591,1.30,-0.90,-0.26,-0.26,1.40,-2.70
1.594,1.30,-0.90,-0.26,-0.22,1.50,-2.75
1.594,1.29,-0.92,-0.36,-0.22,1.50,-2.75
1.598,1.29,-0.92,-0.36,-0.18,1.60,-2.80
1.6,1.29,-0.92,-0.36,-0.13,1.70,-2.85
1.6,1.25,-0.89,-0.44,-0.13,1.70,-2.85
1.604,1.25,-0.89,-0.44,-0.09,1.80,-2.89
1.604,1.15,-0.85,-0.54,-0.09,1.80,-2.89
1.606,1.15,-0.85,-0.54,-0.05,1.90,-2.93
1.606,0.98,-0.79,-0.69,-0.05,1.90,-2.93
1.607,0.98,-0.79,-0.69,-0.01,2.00,-2.95
1.611,0.98,-0.79,-0.69,0.03,2.10,-2.98
1.611,0.98,-0.79,-0.69,0.07,2.20,-2.99
1.611,0.80,-0.67,-0.76,0.07,2.20,-2.99
1.616,0.80,-0.67,-0.76,0.11,2.29,-3.00
1.616,0.60,-0.56,-0.80,0.11,2.29,-3.00
1.622,0.60,-0.56,-0.80,0.16,2.38,-3.01
1.623,0.32,-0.40,-0.80,0.16,2.38,-3.01
1.623,0.32,-0.40,-0.80,0.20,2.47,-3.00
1.623,0.32,-0.40,-0.80,0.25,2.56,-2.99
1.624,-0.00,-0.22,-0.85,0.25,2.56,-2.99
1.626,-0.00,-0.22,-0.85,0.29,2.64,-2.96
1.627,-0.36,-0.03,-0.88,0.29,2.64,-2.96
1.627,-0.36,-0.03,-0.88,0.34,2.73,-2.92
1.631,-0.36,-0.03,-0.88,0.38,2.80,-2.88
1.631,-0.36,-0.03,-0.88,0.43,2.88,-2.82
1.631,-0.80,0.26,-0.95,0.43,2.88,-2.82
1.635,-0.80,0.26,-0.95,0.47,2.96,-2.75
1.635,-1.33,0.47,-1.10,0.47,2.96,-2.75
1.639,-1.33,0.47,-1.10,0.51,3.03,-2.66
1.64,-1.33,0.47,-1.10,0.54,3.10,-2.57
1.64,-1.86,0.72,-1.20,0.54,3.10,-2.57
1.643,-1.86,0.72,-1.20,0.58,3.16,-2.46
1.643,-2.35,0.93,-1.27,0.58,3.16,-2.46
1.647,-2.35,0.93,-1.27,0.61,3.22,-2.34
1.647,-2.35,0.93,-1.27,0.64,3.27,-2.21
1.648,-2.84,1.09,-1.34,0.64,3.27,-2.21
1.653,-2.84,1.09,-1.34,0.67,3.32,-2.07
1.654,-3.29,1.26,-1.43,0.67,3.32,-2.07
1.654,-3.29,1.26,-1.43,0.69,3.37,-1.93
1.655,-3.29,1.26,-1.43,0.71,3.42,-1.77
1.655,-3.65,1.36,-1.55,0.71,3.42,-1.77
1.659,-3.65,1.36,-1.55,0.73,3.46,-1.62
1.66,-3.65,1.36,-1.55,0.74,3.49,-1.46
1.661,-3.95,1.41,-1.66,0.74,3.49,-1.46
1.662,-3.95,1.41,-1.66,0.75,3.52,-1.29
1.663,-4.17,1.42,-1.75,0.75,3.52,-1.29
1.668,-4.17,1.42,-1.75,0.76,3.55,-1.13
1.669,-4.17,1.42,-1.75,0.75,3.57,-0.97
1.669,-4.28,1.37,-1.85,0.75,3.57,-0.97
1.671,-4.28,1.37,-1.85,0.75,3.58,-0.81
1.673,-4.28,1.37,-1.85,0.75,3.58,-0.66
1.673,-4.30,1.28,-1.93,0.75,3.58,-0.66
1.675,-4.30,1.28,-1.93,0.74,3.58,-0.52
1.676,-4.19,1.12,-1.96,0.74,3.58,-0.52
1.679,-4.19,1.12,-1.96,0.72,3.57,-0.38
1.679,-3.95,0.92,-1.97,0.72,3.57,-0.38
1.68,-3.95,0.92,-1.97,0.71,3.55,-0.25
1.703,-3.95,0.92,-1.97,0.69,3.52,-0.14
1.703,-3.62,0.74,-1.94,0.69,3.52,-0.14
1.703,-3.19,0.53,-1.90,0.69,3.52,-0.14
1.704,-2.70,0.31,-1.83,0.69,3.52,-0.14
1.704,-2.70,0.31,-1.83,0.68,3.49,-0.03
1.704,-2.70,0.31,-1.83,0.66,3.44,0.05
1.705,-2.70,0.31,-1.83,0.64,3.39,0.13
1.705,-2.70,0.31,-1.83,0.62,3.32,0.19
1.705,-2.17,0.13,-1.78,0.62,3.32,0.19
1.705,-2.17,0.13,-1.78,0.60,3.25,0.24
1.706,-2.17,0.13,-1.78,0.59,3.17,0.27
1.706,-1.65,-0.01,-1.68,0.59,3.17,0.27
1.706,-1.65,-0.01,-1.68,0.57,3.07,0.29
1.706,-1.65,-0.01,-1.68,0.56,2.98,0.30
1.707,-1.17,-0.15,-1.62,0.56,2.98,0.30
1.708,-1.17,-0.15,-1.62,0.55,2.87,0.30
1.708,-1.17,-0.15,-1.62,0.53,2.76,0.29
1.708,-0.78,-0.22,-1.55,0.53,2.76,0.29
1.715,-0.78,-0.22,-1.55,0.52,2.64,0.26
1.715,-0.78,-0.22,-1.55,0.52,2.52,0.24
1.716,-0.43,-0.31,-1.48,0.52,2.52,0.24
1.716,-0.18,-0.38,-1.43,0.52,2.52,0.24
1.716,-0.18,-0.38,-1.43,0.51,2.39,0.20
1.719,-0.18,-0.38,-1.43,0.50,2.25,0.17
1.719,-0.02,-0.44,-1.39,0.50,2.25,0.17
1.719,-0.02,-0.44,-1.39,0.49,2.12,0.13
1.722,-0.02,-0.44,-1.39,0.48,1.98,0.08
1.722,0.07,-0.50,-1.35,0.48,1.98,0.08
1.726,0.07,-0.50,-1.35,0.48,1.85,0.04
1.727,0.07,-0.50,-1.35,0.47,1.71,-0.00
1.727,0.06,-0.57,-1.32,0.47,1.71,-0.00
1.73,0.06,-0.57,-1.32,0.46,1.57,-0.04
1.731,0.06,-0.57,-1.32,0.45,1.43,-0.09
1.731,0.00,-0.57,-1.30,0.45,1.43,-0.09
1.734,-0.10,-0.59,-1.30,0.45,1.43,-0.09
1.735,-0.10,-0.59,-1.30,0.44,1.30,-0.12
1.738,-0.10,-0.59,-1.30,0.43,1.16,-0.16
1.738,-0.10,-0.59,-1.30,0.42,1.03,-0.19
1.739,-0.24,-0.60,-1.27,0.42,1.03,-0.19
1.74,-0.24,-0.60,-1.27,0.41,0.91,-0.21
1.742,-0.41,-0.58,-1.26,0.41,0.91,-0.21
1.744,-0.41,-0.58,-1.26,0.40,0.78,-0.23
1.748,-0.41,-0.58,-1.26,0.39,0.66,-0.25
1.749,-0.57,-0.55,-1.25,0.39,0.66,-0.25
1.753,-0.57,-0.55,-1.25,0.38,0.55,-0.26
1.754,-0.57,-0.55,-1.25,0.37,0.44,-0.27
1.754,-0.79,-0.49,-1.23,0.37,0.44,-0.27
1.755,-0.79,-0.49,-1.23,0.36,0.33,-0.27
1.755,-0.99,-0.40,-1.22,0.36,0.33,-0.27
1.759,-0.99,-0.40,-1.22,0.34,0.23,-0.27
1.759,-1.15,-0.32,-1.20,0.34,0.23,-0.27
1.759,-1.15,-0.32,-1.20,0.33,0.14,-0.27
1.762,-1.15,-0.32,-1.20,0.32,0.05,-0.26
1.763,-1.30,-0.21,-1.19,0.32,0.05,-0.26
1.767,-1.30,-0.21,-1.19,0.31,-0.04,-0.25
1.767,-1.30,-0.21,-1.19,0.29,-0.12,-0.23
1.768,-1.45,-0.11,-1.15,0.29,-0.12,-0.23
1.771,-1.45,-0.11,-1.15,0.28,-0.19,-0.21
1.771,-1.53,-0.05,-1.09,0.28,-0.19,-0.21
1.771,-1.53,-0.05,-1.09,0.27,-0.26,-0.19
1.775,-1.53,-0.05,-1.09,0.26,-0.33,-0.17
1.775,-1.58,0.06,-1.04,0.26,-0.33,-0.17
1.779,-1.58,0.06,-1.04,0.24,-0.39,-0.15
1.779,-1.58,0.06,-1.04,0.23,-0.45,-0.13
1.78,-1.59,0.12,-0.98,0.23,-0.45,-0.13
1.782,-1.59,0.12,-0.98,0.23,-0.51,-0.11
1.783,-1.52,0.16,-0.88,0.23,-0.51,-0.11
1.786,-1.52,0.16,-0.88,0.22,-0.56,-0.09
1.787,-1.47,0.19,-0.79,0.22,-0.56,-0.09
1.788,-1.47,0.19,-0.79,0.21,-0.61,-0.07
1.791,-1.47,0.19,-0.79,0.21,-0.65,-0.05
1.791,-1.47,0.19,-0.79,0.21,-0.70,-0.03
1.792,-1.37,0.21,-0.69,0.21,-0.70,-0.03
1.796,-1.26,0.18,-0.58,0.21,-0.70,-0.03
1.796,-1.26,0.18,-0.58,0.20,-0.74,-0.02
1.804,-1.26,0.18,-0.58,0.20,-0.78,-0.00
1.805,-1.26,0.18,-0.58,0.20,-0.82,0.01
1.805,-1.13,0.17,-0.48,0.20,-0.82,0.01
1.805,-1.13,0.17,-0.48,0.21,-0.86,0.02
1.805,-0.97,0.14,-0.38,0.21,-0.86,0.02
1.807,-0.97,0.14,-0.38,0.21,-0.89,0.03
1.807,-0.85,0.14,-0.26,0.21,-0.89,0.03
1.807,-0.85,0.14,-0.26,0.21,-0.93,0.04
1.811,-0.85,0.14,-0.26,0.22,-0.96,0.05
1.811,-0.74,0.11,-0.16,0.22,-0.96,0.05
1.811,-0.74,0.11,-0.16,0.22,-0.99,0.05
1.815,-0.66,0.06,-0.12,0.22,-0.99,0.05
1.815,-0.66,0.06,-0.12,0.23,-1.02,0.06
1.82,-0.66,0.06,-0.12,0.23,-1.04,0.06
1.82,-0.60,0.03,-0.06,0.23,-1.04,0.06
1.821,-0.60,0.03,-0.06,0.24,-1.07,0.07
1.825,-0.60,0.03,-0.06,0.25,-1.09,0.07
1.825,-0.51,-0.02,-0.02,0.25,-1.09,0.07
1.828,-0.51,-0.02,-0.02,0.25,-1.11,0.08
1.829,-0.51,-0.02,-0.02,0.26,-1.13,0.09
1.829,-0.45,-0.03,0.06,0.26,-1.13,0.09
1.831,-0.45,-0.03,0.06,0.27,-1.14,0.09
1.831,-0.34,-0.01,0.13,0.27,-1.14,0.09
1.831,-0.34,-0.01,0.13,0.28,-1.16,0.10
1.836,-0.34,-0.01,0.13,0.29,-1.17,0.10
1.852,-0.19,0.02,0.28,0.29,-1.17,0.10
1.852,-0.19,0.02,0.28,0.31,-1.18,0.10
1.852,-0.19,0.02,0.28,0.32,-1.19,0.09
1.852,0.00,0.10,0.48,0.32,-1.19,0.09
1.852,0.00,0.10,0.48,0.34,-1.19,0.08
1.852,0.24,0.21,0.75,0.34,-1.19,0.08
1.852,0.24,0.21,0.75,0.37,-1.19,0.06
1.852,0.24,0.21,0.75,0.41,-1.20,0.04
1.853,0.47,0.31,1.08,0.41,-1.20,0.04
1.853,0.47,0.31,1.08,0.45,-1.19,0.02
1.853,0.47,0.31,1.08,0.49,-1.19,-0.01
1.853,0.70,0.36,1.47,0.49,-1.19,-0.01
1.855,0.83,0.43,1.84,0.49,-1.19,-0.01
1.855,0.83,0.43,1.84,0.54,-1.19,-0.04
1.86,0.83,0.43,1.84,0.61,-1.18,-0.06
1.86,0.87,0.46,2.26,0.61,-1.18,-0.06
1.861,0.87,0.46,2.26,0.67,-1.16,-0.09
1.863,0.78,0.45,2.69,0.67,-1.16,-0.09
1.863,0.78,0.45,2.69,0.74,-1.14,-0.11
1.866,0.78,0.45,2.69,0.82,-1.11,-0.13
1.867,0.78,0.45,2.69,0.90,-1.07,-0.14
1.867,0.65,0.41,3.11,0.90,-1.07,-0.14
1.87,0.65,0.41,3.11,0.99,-1.03,-0.15
1.87,0.65,0.41,3.11,1.07,-0.99,-0.15
1.87,0.49,0.36,3.40,1.07,-0.99,-0.15
1.875,0.29,0.27,3.53,1.07,-0.99,-0.15
1.875,0.29,0.27,3.53,1.16,-0.93,-0.15
1.878,0.29,0.27,3.53,1.24,-0.87,-0.14
1.878,0.16,0.16,3.43,1.24,-0.87,-0.14
1.879,0.16,0.16,3.43,1.31,-0.81,-0.13
1.882,0.16,0.16,3.43,1.38,-0.74,-0.11
1.882,0.03,0.10,3.12,1.38,-0.74,-0.11
1.886,0.03,0.10,3.12,1.44,-0.66,-0.09
1.889,0.03,0.10,3.12,1.48,-0.59,-0.06
1.889,-0.11,0.06,2.63,1.48,-0.59,-0.06
1.89,-0.11,0.06,2.63,1.51,-0.51,-0.03
1.891,-0.17,0.07,2.05,1.51,-0.51,-0.03
1.891,-0.17,0.07,2.05,1.54,-0.44,-0.00
1.895,-0.17,0.07,2.05,1.54,-0.36,0.02
1.895,-0.19,0.15,1.46,1.54,-0.36,0.02
1.9,-0.19,0.15,1.46,1.54,-0.28,0.05
1.9,-0.19,0.15,1.46,1.53,-0.20,0.08
1.903,-0.19,0.15,1.46,1.50,-0.13,0.10
1.904,-0.13,0.27,0.89,1.50,-0.13,0.10
1.904,-0.04,0.40,0.36,1.50,-0.13,0.10
1.906,-0.04,0.40,0.36,1.47,-0.05,0.13
1.907,-0.04,0.40,0.36,1.43,0.02,0.15
1.908,0.01,0.50,-0.09,1.43,0.02,0.15
1.911,0.01,0.50,-0.09,1.38,0.09,0.16
1.911,0.06,0.65,-0.48,1.38,0.09,0.16
1.911,0.06,0.65,-0.48,1.32,0.15,0.18
1.915,0.06,0.65,-0.48,1.26,0.21,0.19
1.915,0.13,0.71,-0.80,1.26,0.21,0.19
1.92,0.13,0.71,-0.80,1.20,0.27,0.20
1.921,0.18,0.78,-1.03,1.20,0.27,0.20
1.921,0.18,0.78,-1.03,1.12,0.32,0.21
1.923,0.18,0.78,-1.03,1.05,0.37,0.22
1.924,0.19,0.80,-1.17,1.05,0.37,0.22
1.927,0.19,0.80,-1.17,0.98,0.42,0.22
1.927,0.19,0.80,-1.17,0.90,0.46,0.22
1.928,0.16,0.78,-1.22,0.90,0.46,0.22
1.93,0.16,0.78,-1.22,0.82,0.50,0.22
1.931,0.14,0.75,-1.16,0.82,0.50,0.22
1.931,0.14,0.75,-1.16,0.74,0.54,0.22
1.936,0.14,0.75,-1.16,0.67,0.56,0.22
1.936,0.06,0.62,-1.04,0.67,0.56,0.22
1.939,0.06,0.62,-1.04,0.59,0.59,0.21
1.939,0.06,0.62,-1.04,0.52,0.60,0.21
1.941,0.01,0.52,-0.82,0.52,0.60,0.21
1.942,0.01,0.52,-0.82,0.46,0.61,0.20
1.943,-0.05,0.41,-0.57,0.46,0.61,0.20
1.945,-0.05,0.41,-0.57,0.39,0.62,0.19
1.949,-0.05,0.41,-0.57,0.33,0.62,0.19
1.949,-0.12,0.32,-0.33,0.33,0.62,0.19
1.951,-0.12,0.32,-0.33,0.27,0.62,0.17
1.951,-0.12,0.32,-0.33,0.22,0.61,0.16
1.951,-0.20,0.26,-0.08,0.22,0.61,0.16
1.955,-0.20,0.26,-0.08,0.17,0.60,0.15
1.956,-0.30,0.24,0.16,0.17,0.60,0.15
1.959,-0.30,0.24,0.16,0.12,0.59,0.14
1.96,-0.30,0.24,0.16,0.07,0.57,0.13
1.96,-0.38,0.24,0.37,0.07,0.57,0.13
1.963,-0.38,0.24,0.37,0.03,0.55,0.11
1.963,-0.49,0.25,0.57,0.03,0.55,0.11
1.967,-0.49,0.25,0.57,-0.01,0.52,0.10
1.967,-0.58,0.26,0.73,-0.01,0.52,0.10
1.967,-0.58,0.26,0.73,-0.05,0.49,0.09
1.97,-0.58,0.26,0.73,-0.08,0.46,0.08
1.971,-0.58,0.26,0.73,-0.12,0.43,0.07
1.972,-0.70,0.28,0.84,-0.12,0.43,0.07
1.975,-0.70,0.28,0.84,-0.15,0.40,0.06
1.975,-0.77,0.30,0.87,-0.15,0.40,0.06
1.979,-0.77,0.30,0.87,-0.18,0.36,0.05
1.979,-0.77,0.30,0.87,-0.21,0.32,0.04
1.98,-0.83,0.31,0.87,-0.21,0.32,0.04
1.983,-0.83,0.31,0.87,-0.24,0.28,0.04
1.983,-0.81,0.27,0.80,-0.24,0.28,0.04
1.987,-0.81,0.27,0.80,-0.27,0.24,0.03
1.988,-0.81,0.27,0.80,-0.29,0.19,0.02
1.988,-0.78,0.24,0.72,-0.29,0.19,0.02
2.011,-0.78,0.24,0.72,-0.32,0.15,0.00
2.011,-0.69,0.19,0.58,-0.32,0.15,0.00
2.011,-0.69,0.19,0.58,-0.35,0.11,-0.01
2.012,-0.61,0.14,0.45,-0.35,0.11,-0.01
2.012,-0.61,0.14,0.45,-0.38,0.06,-0.02
2.012,-0.61,0.14,0.45,-0.41,0.02,-0.03
2.013,-0.61,0.14,0.45,-0.44,-0.02,-0.05
2.013,-0.50,0.08,0.35,-0.44,-0.02,-0.05
2.013,-0.50,0.08,0.35,-0.47,-0.06,-0.06
2.014,-0.41,0.03,0.27,-0.47,-0.06,-0.06
2.014,-0.41,0.03,0.27,-0.50,-0.10,-0.08
2.014,-0.41,0.03,0.27,-0.53,-0.13,-0.09
2.015,-0.35,0.02,0.17,-0.53,-0.13,-0.09
2.015,-0.35,0.02,0.17,-0.55,-0.17,-0.10
2.015,-0.35,0.02,0.17,-0.58,-0.20,-0.11
2.015,-0.25,-0.02,0.10,-0.58,-0.20,-0.11
2.016,-0.25,-0.02,0.10,-0.61,-0.22,-0.12
2.016,-0.24,0.01,0.02,-0.61,-0.22,-0.12
2.021,-0.24,0.01,0.02,-0.64,-0.24,-0.13
2.021,-0.22,-0.01,-0.05,-0.64,-0.24,-0.13
2.021,-0.22,-0.01,-0.05,-0.66,-0.26,-0.13
2.022,-0.22,-0.01,-0.05,-0.69,-0.28,-0.14
2.023,-0.23,0.00,-0.10,-0.69,-0.28,-0.14
2.026,-0.23,0.00,-0.10,-0.72,-0.30,-0.14
2.027,-0.20,-0.01,-0.16,-0.72,-0.30,-0.14
2.028,-0.20,-0.01,-0.16,-0.74,-0.31,-0.14
2.03,-0.20,-0.01,-0.16,-0.76,-0.32,-0.14
2.031,-0.19,-0.01,-0.16,-0.76,-0.32,-0.14
2.031,-0.19,-0.01,-0.16,-0.78,-0.33,-0.14
2.034,-0.19,-0.02,-0.16,-0.78,-0.33,-0.14
2.034,-0.19,-0.02,-0.16,-0.80,-0.34,-0.14
2.039,-0.14,-0.06,-0.15,-0.80,-0.34,-0.14
2.039,-0.14,-0.06,-0.15,-0.82,-0.34,-0.14
2.039,-0.14,-0.06,-0.15,-0.84,-0.34,-0.14
2.042,-0.14,-0.06,-0.15,-0.85,-0.34,-0.13
2.042,-0.12,-0.08,-0.13,-0.85,-0.34,-0.13
2.046,-0.12,-0.08,-0.13,-0.87,-0.35,-0.13
2.046,-0.11,-0.09,-0.09,-0.87,-0.35,-0.13
2.047,-0.11,-0.09,-0.09,-0.88,-0.35,-0.13
2.051,-0.11,-0.09,-0.09,-0.88,-0.35,-0.12
2.051,-0.11,-0.09,-0.09,-0.89,-0.34,-0.12
2.051,-0.12,-0.12,-0.06,-0.89,-0.34,-0.12
2.055,-0.12,-0.12,-0.06,-0.90,-0.34,-0.11
2.055,-0.07,-0.11,-0.03,-0.90,-0.34,-0.11
2.058,-0.07,-0.11,-0.03,-0.90,-0.33,-0.11
2.058,-0.08,-0.09,0.05,-0.90,-0.33,-0.11
2.059,-0.08,-0.09,0.05,-0.90,-0.33,-0.10
2.062,-0.08,-0.09,0.05,-0.90,-0.32,-0.10
2.062,-0.07,-0.05,0.07,-0.90,-0.32,-0.10
2.066,-0.07,-0.05,0.07,-0.89,-0.32,-0.09
2.066,-0.07,0.02,0.11,-0.89,-0.32,-0.09
2.066,-0.07,0.02,0.11,-0.89,-0.31,-0.09
2.073,-0.07,0.02,0.11,-0.88,-0.30,-0.08
2.073,-0.07,0.05,0.15,-0.88,-0.30,-0.08
2.074,-0.07,0.05,0.15,-0.87,-0.29,-0.08
2.075,-0.07,0.05,0.15,-0.86,-0.28,-0.07
2.075,-0.06,0.09,0.18,-0.86,-0.28,-0.07
2.079,-0.09,0.17,0.20,-0.86,-0.28,-0.07
2.079,-0.09,0.17,0.20,-0.85,-0.27,-0.07
2.079,-0.09,0.17,0.20,-0.84,-0.26,-0.06
2.083,-0.09,0.17,0.20,-0.82,-0.25,-0.05
2.083,-0.07,0.23,0.23,-0.82,-0.25,-0.05
2.087,-0.07,0.23,0.23,-0.81,-0.24,-0.05
2.088,-0.08,0.25,0.27,-0.81,-0.24,-0.05
2.088,-0.08,0.25,0.27,-0.79,-0.23,-0.04
2.09,-0.08,0.25,0.27,-0.77,-0.22,-0.03
2.092,-0.08,0.25,0.27,-0.75,-0.20,-0.03
2.092,-0.10,0.29,0.28,-0.75,-0.20,-0.03
2.095,-0.10,0.29,0.28,-0.73,-0.19,-0.02
2.096,-0.10,0.33,0.31,-0.73,-0.19,-0.02
2.099,-0.10,0.33,0.31,-0.71,-0.18,-0.02
2.099,-0.10,0.33,0.31,-0.69,-0.16,-0.01
2.1,-0.09,0.36,0.32,-0.69,-0.16,-0.01
2.102,-0.09,0.36,0.32,-0.66,-0.15,-0.01
2.105,-0.11,0.30,0.32,-0.66,-0.15,-0.01
2.107,-0.11,0.30,0.32,-0.64,-0.13,-0.00
2.108,-0.11,0.30,0.32,-0.61,-0.12,0.00
2.108,-0.17,0.29,0.32,-0.61,-0.12,0.00
2.111,-0.17,0.29,0.32,-0.58,-0.10,0.01
2.111,-0.14,0.28,0.31,-0.58,-0.10,0.01
2.111,-0.14,0.28,0.31,-0.56,-0.09,0.02
2.115,-0.14,0.28,0.31,-0.53,-0.07,0.02
2.116,-0.16,0.20,0.33,-0.53,-0.07,0.02
2.122,-0.16,0.20,0.33,-0.51,-0.06,0.03
2.122,-0.16,0.20,0.33,-0.48,-0.04,0.03
2.122,-0.19,0.13,0.30,-0.48,-0.04,0.03
2.123,-0.19,0.13,0.30,-0.45,-0.03,0.04
2.123,-0.20,0.10,0.28,-0.45,-0.03,0.04
2.127,-0.20,0.10,0.28,-0.43,-0.02,0.04
2.127,-0.21,0.06,0.22,-0.43,-0.02,0.04
2.128,-0.21,0.06,0.22,-0.40,-0.00,0.05
2.131,-0.21,0.06,0.22,-0.38,0.01,0.05
2.131,-0.21,0.06,0.22,-0.35,0.02,0.06
2.131,-0.21,0.05,0.18,-0.35,0.02,0.06
2.135,-0.21,0.05,0.18,-0.33,0.03,0.06
2.135,-0.23,0.03,0.11,-0.33,0.03,0.06
2.141,-0.23,0.03,0.11,-0.31,0.03,0.07
2.141,-0.24,0.03,0.06,-0.31,0.03,0.07
2.141,-0.24,0.03,0.06,-0.29,0.04,0.07
2.142,-0.24,0.03,0.06,-0.27,0.05,0.07
2.161,-0.27,0.02,-0.02,-0.27,0.05,0.07
2.161,-0.27,0.02,-0.02,-0.25,0.05,0.08
2.162,-0.27,0.02,-0.02,-0.24,0.05,0.08
2.162,-0.26,0.02,-0.09,-0.24,0.05,0.08
2.162,-0.26,0.02,-0.09,-0.22,0.05,0.08
2.162,-0.26,0.02,-0.09,-0.21,0.05,0.08
2.162,-0.26,0.02,-0.14,-0.21,0.05,0.08
2.162,-0.26,0.02,-0.14,-0.19,0.05,0.08
2.163,-0.28,0.05,-0.18,-0.19,0.05,0.08
2.163,-0.28,0.05,-0.18,-0.18,0.04,0.08
2.163,-0.26,0.05,-0.24,-0.18,0.04,0.08
2.163,-0.26,0.05,-0.24,-0.17,0.03,0.08
2.163,-0.26,0.05,-0.24,-0.16,0.03,0.08
2.163,-0.28,0.05,-0.30,-0.16,0.03,0.08
2.167,-0.28,0.05,-0.30,-0.15,0.02,0.08
2.169,-0.27,0.04,-0.33,-0.15,0.02,0.08
2.17,-0.27,0.04,-0.33,-0.13,0.01,0.08
2.173,-0.29,0.03,-0.37,-0.13,0.01,0.08
2.174,-0.29,0.03,-0.37,-0.12,-0.00,0.08
2.174,-0.29,0.03,-0.37,-0.12,-0.01,0.08
2.175,-0.29,0.03,-0.37,-0.11,-0.03,0.08
2.175,-0.32,0.05,-0.40,-0.11,-0.03,0.08
2.176,-0.32,0.05,-0.40,-0.10,-0.04,0.08
2.18,-0.32,0.05,-0.40,-0.09,-0.06,0.08
2.18,-0.33,0.03,-0.40,-0.09,-0.06,0.08
2.181,-0.33,0.03,-0.40,-0.09,-0.07,0.08
2.184,-0.38,0.02,-0.43,-0.09,-0.07,0.08
2.184,-0.38,0.02,-0.43,-0.08,-0.09,0.08
2.188,-0.38,0.00,-0.43,-0.08,-0.09,0.08
2.189,-0.38,0.00,-0.43,-0.07,-0.10,0.07
2.189,-0.38,0.00,-0.43,-0.06,-0.12,0.08
2.193,-0.38,0.00,-0.43,-0.06,-0.13,0.08
2.194,-0.42,0.01,-0.43,-0.06,-0.13,0.08
2.196,-0.42,0.01,-0.43,-0.05,-0.15,0.08
2.196,-0.42,0.01,-0.43,-0.04,-0.16,0.08
2.197,-0.46,0.05,-0.44,-0.04,-0.16,0.08
2.202,-0.46,0.05,-0.44,-0.03,-0.18,0.08
2.202,-0.48,0.09,-0.43,-0.03,-0.18,0.08
2.202,-0.48,0.09,-0.43,-0.03,-0.19,0.08
2.205,-0.48,0.09,-0.43,-0.02,-0.20,0.08
2.206,-0.49,0.12,-0.40,-0.02,-0.20,0.08
2.209,-0.49,0.12,-0.40,-0.01,-0.22,0.08
2.209,-0.49,0.12,-0.40,-0.01,-0.23,0.08
2.209,-0.50,0.15,-0.39,-0.01,-0.23,0.08
2.212,-0.50,0.15,-0.39,0.00,-0.24,0.08
2.212,-0.51,0.20,-0.37,0.00,-0.24,0.08
2.216,-0.53,0.21,-0.35,0.00,-0.24,0.08
2.216,-0.53,0.21,-0.35,0.01,-0.25,0.08
2.216,-0.53,0.21,-0.35,0.02,-0.26,0.08
2.22,-0.53,0.23,-0.31,0.02,-0.26,0.08
2.222,-0.53,0.23,-0.31,0.03,-0.26,0.07
2.222,-0.53,0.23,-0.31,0.04,-0.27,0.07
2.226,-0.51,0.24,-0.29,0.04,-0.27,0.07
2.226,-0.51,0.24,-0.29,0.06,-0.27,0.07
2.229,-0.49,0.22,-0.24,0.06,-0.27,0.07
2.229,-0.49,0.22,-0.24,0.07,-0.28,0.07
2.229,-0.49,0.22,-0.24,0.08,-0.28,0.07
2.233,-0.49,0.22,-0.24,0.09,-0.28,0.07
2.233,-0.49,0.22,-0.18,0.09,-0.28,0.07
2.236,-0.45,0.16,-0.16,0.09,-0.28,0.07
2.236,-0.45,0.16,-0.16,0.10,-0.27,0.07
2.237,-0.45,0.16,-0.16,0.12,-0.27,0.06
2.24,-0.46,0.13,-0.13,0.12,-0.27,0.06
2.241,-0.46,0.13,-0.13,0.13,-0.27,0.06
2.242,-0.46,0.13,-0.13,0.14,-0.26,0.06
2.245,-0.41,0.09,-0.09,0.14,-0.26,0.06
2.245,-0.41,0.09,-0.09,0.16,-0.25,0.05
2.249,-0.41,0.09,-0.09,0.17,-0.24,0.05
2.249,-0.40,0.04,-0.08,0.17,-0.24,0.05
2.249,-0.40,0.04,-0.08,0.18,-0.23,0.05
2.253,-0.40,0.04,-0.08,0.20,-0.21,0.05
2.253,-0.35,-0.03,-0.06,0.20,-0.21,0.05
2.256,-0.33,-0.07,-0.04,0.20,-0.21,0.05
2.258,-0.33,-0.07,-0.04,0.21,-0.20,0.04
2.259,-0.33,-0.07,-0.04,0.22,-0.18,0.04
2.26,-0.33,-0.07,-0.04,0.23,-0.16,0.04
2.26,-0.30,-0.08,-0.04,0.23,-0.16,0.04
2.261,-0.30,-0.08,-0.04,0.24,-0.15,0.03
2.264,-0.26,-0.11,-0.05,0.24,-0.15,0.03
2.265,-0.26,-0.11,-0.05,0.25,-0.13,0.03
2.269,-0.22,-0.08,-0.06,0.25,-0.13,0.03
2.27,-0.22,-0.08,-0.06,0.26,-0.11,0.03
2.27,-0.22,-0.08,-0.06,0.27,-0.08,0.03
2.272,-0.22,-0.08,-0.06,0.28,-0.06,0.02
2.273,-0.19,-0.10,-0.08,0.28,-0.06,0.02
2.276,-0.15,-0.11,-0.11,0.28,-0.06,0.02
2.277,-0.15,-0.11,-0.11,0.28,-0.04,0.02
2.277,-0.15,-0.11,-0.11,0.29,-0.01,0.02
2.281,-0.15,-0.11,-0.11,0.29,0.01,0.02
2.281,-0.15,-0.11,-0.11,0.30,0.04,0.01
2.281,-0.09,-0.10,-0.13,0.30,0.04,0.01
2.285,-0.08,-0.12,-0.14,0.30,0.04,0.01
2.285,-0.08,-0.12,-0.14,0.30,0.06,0.01
2.289,-0.08,-0.12,-0.14,0.30,0.08,0.01
2.29,-0.08,-0.12,-0.14,0.31,0.11,0.01
2.29,-0.03,-0.11,-0.15,0.31,0.11,0.01
2.293,-0.01,-0.07,-0.17,0.31,0.11,0.01
2.293,-0.01,-0.07,-0.17,0.31,0.14,0.00
2.297,0.03,-0.07,-0.15,0.31,0.14,0.00
2.297,0.03,-0.07,-0.15,0.31,0.16,0.00
2.315,0.03,-0.07,-0.15,0.31,0.19,0.00
2.315,0.03,-0.07,-0.15,0.31,0.22,-0.00
2.315,0.05,-0.02,-0.16,0.31,0.22,-0.00
2.315,0.05,-0.02,-0.16,0.31,0.24,-0.00
2.316,0.05,-0.02,-0.16,0.31,0.27,-0.00
2.316,0.10,0.00,-0.15,0.31,0.27,-0.00
2.316,0.10,0.00,-0.15,0.31,0.29,-0.01
2.316,0.10,0.03,-0.14,0.31,0.29,-0.01
2.316,0.10,0.03,-0.14,0.31,0.32,-0.01
2.316,0.13,0.07,-0.10,0.31,0.32,-0.01
2.317,0.13,0.07,-0.10,0.31,0.34,-0.01
2.317,0.16,0.12,-0.06,0.31,0.34,-0.01
2.317,0.16,0.12,-0.06,0.32,0.36,-0.01
2.317,0.16,0.12,-0.06,0.32,0.38,-0.01
2.322,0.16,0.12,-0.06,0.32,0.41,-0.01
2.322,0.16,0.16,0.00,0.32,0.41,-0.01
2.323,0.16,0.16,0.00,0.33,0.43,-0.01
2.326,0.16,0.16,0.00,0.33,0.45,-0.01
2.326,0.17,0.20,0.08,0.33,0.45,-0.01
2.329,0.17,0.25,0.14,0.33,0.45,-0.01
2.329,0.17,0.25,0.14,0.33,0.47,-0.01
2.329,0.17,0.25,0.14,0.34,0.49,-0.01
2.332,0.17,0.25,0.14,0.35,0.51,-0.02
2.332,0.15,0.27,0.21,0.35,0.51,-0.02
2.336,0.15,0.27,0.28,0.35,0.51,-0.02
2.336,0.15,0.27,0.28,0.35,0.52,-0.01
2.336,0.15,0.27,0.28,0.36,0.54,-0.01
2.339,0.15,0.27,0.28,0.37,0.55,-0.01
2.339,0.16,0.27,0.34,0.37,0.55,-0.01
2.342,0.16,0.27,0.34,0.38,0.56,-0.01
2.342,0.15,0.24,0.41,0.38,0.56,-0.01
2.344,0.15,0.24,0.41,0.39,0.58,-0.01
2.348,0.15,0.24,0.41,0.40,0.59,-0.00
2.348,0.12,0.21,0.45,0.40,0.59,-0.00
2.35,0.12,0.21,0.45,0.41,0.60,-0.00
2.35,0.12,0.21,0.45,0.42,0.60,0.00
2.35,0.10,0.20,0.46,0.42,0.60,0.00
2.356,0.10,0.17,0.48,0.42,0.60,0.00
2.357,0.10,0.17,0.48,0.42,0.61,0.01
2.358,0.10,0.17,0.48,0.43,0.61,0.01
2.359,0.08,0.11,0.50,0.43,0.61,0.01
2.36,0.08,0.11,0.50,0.44,0.62,0.01
2.363,0.08,0.11,0.50,0.44,0.62,0.01
2.363,0.04,0.08,0.45,0.44,0.62,0.01
2.366,0.04,0.08,0.45,0.45,0.62,0.02
2.366,0.04,0.08,0.45,0.45,0.61,0.02
2.366,0.02,0.10,0.44,0.45,0.61,0.02
2.37,0.02,0.10,0.44,0.45,0.61,0.02
2.37,0.02,0.10,0.44,0.45,0.61,0.02
2.371,-0.01,0.08,0.38,0.45,0.61,0.02
2.375,-0.04,0.05,0.33,0.45,0.61,0.02
2.375,-0.04,0.05,0.33,0.45,0.60,0.03
2.379,-0.04,0.05,0.33,0.45,0.59,0.03
2.379,-0.04,0.05,0.33,0.44,0.58,0.03
2.38,-0.05,0.07,0.27,0.44,0.58,0.03
2.382,-0.05,0.07,0.27,0.43,0.57,0.03
2.382,-0.08,0.08,0.22,0.43,0.57,0.03
2.386,-0.08,0.08,0.22,0.43,0.56,0.03
2.389,-0.08,0.10,0.17,0.43,0.56,0.03
2.39,-0.08,0.10,0.17,0.42,0.54,0.04
2.391,-0.08,0.10,0.17,0.41,0.53,0.04
2.392,-0.08,0.09,0.11,0.41,0.53,0.04
2.392,-0.08,0.09,0.11,0.40,0.51,0.04
2.394,-0.08,0.09,0.11,0.38,0.49,0.04
2.395,-0.09,0.09,0.09,0.38,0.49,0.04
2.398,-0.09,0.09,0.09,0.37,0.47,0.03
2.399,-0.09,0.09,0.09,0.35,0.45,0.03
2.399,-0.08,0.08,0.04,0.35,0.45,0.03
2.402,-0.08,0.08,0.04,0.34,0.43,0.03
2.403,-0.07,0.08,0.03,0.34,0.43,0.03
2.407,-0.07,0.08,0.03,0.32,0.41,0.03
2.407,-0.04,0.03,0.02,0.32,0.41,0.03
2.408,-0.04,0.03,0.02,0.31,0.38,0.03
2.411,-0.04,0.03,0.02,0.29,0.36,0.03
2.411,-0.08,0.02,0.00,0.29,0.36,0.03
2.411,-0.08,0.02,0.00,0.27,0.34,0.03
2.415,-0.08,0.02,0.00,0.26,0.31,0.02
2.416,-0.08,0.02,0.02,0.26,0.31,0.02
2.419,-0.08,0.02,0.02,0.24,0.29,0.02
2.421,-0.08,0.02,0.02,0.22,0.27,0.02
2.421,-0.09,0.03,0.00,0.22,0.27,0.02
2.423,-0.09,0.03,0.00,0.21,0.25,0.02
2.424,-0.09,0.02,-0.02,0.21,0.25,0.02
2.428,-0.09,0.02,-0.02,0.19,0.23,0.02
2.428,-0.09,0.02,-0.02,0.17,0.21,0.02
2.429,-0.13,0.02,-0.01,0.17,0.21,0.02
2.431,-0.13,0.02,-0.01,0.15,0.19,0.02
2.431,-0.17,0.05,0.00,0.15,0.19,0.02
2.431,-0.17,0.05,0.00,0.14,0.17,0.02
2.435,-0.17,0.05,0.00,0.12,0.15,0.03
2.435,-0.19,0.11,0.00,0.12,0.15,0.03
2.44,-0.19,0.11,0.00,0.10,0.14,0.03
2.441,-0.19,0.11,0.00,0.09,0.13,0.03
2.441,-0.25,0.13,-0.00,0.09,0.13,0.03
2.442,-0.25,0.13,-0.00,0.07,0.12,0.04
2.443,-0.28,0.17,0.03,0.07,0.12,0.04
2.448,-0.28,0.17,0.03,0.06,0.10,0.04
2.448,-0.28,0.17,0.03,0.05,0.10,0.05
2.448,-0.31,0.19,0.07,0.05,0.10,0.05
2.45,-0.31,0.19,0.07,0.03,0.09,0.05
2.472,-0.33,0.21,0.09,0.03,0.09,0.05
2.472,-0.33,0.21,0.09,0.02,0.08,0.05
2.473,-0.33,0.21,0.09,0.01,0.08,0.06
2.473,-0.33,0.20,0.14,0.01,0.08,0.06
2.473,-0.30,0.18,0.18,0.01,0.08,0.06
2.474,-0.30,0.18,0.18,0.00,0.07,0.06
2.474,-0.30,0.18,0.18,-0.00,0.07,0.06
2.474,-0.30,0.18,0.18,-0.01,0.06,0.06
2.474,-0.31,0.17,0.21,-0.01,0.06,0.06
2.475,-0.31,0.17,0.21,-0.02,0.06,0.06
2.475,-0.31,0.17,0.21,-0.02,0.05,0.06
2.475,-0.31,0.16,0.23,-0.02,0.05,0.06
2.476,-0.31,0.16,0.23,-0.03,0.05,0.06
2.476,-0.31,0.16,0.23,-0.03,0.04,0.06
2.476,-0.32,0.15,0.28,-0.03,0.04,0.06
2.477,-0.29,0.12,0.26,-0.03,0.04,0.06
2.477,-0.29,0.12,0.26,-0.03,0.04,0.06
2.481,-0.29,0.12,0.26,-0.04,0.04,0.06
2.482,-0.29,0.12,0.26,-0.04,0.03,0.06
2.482,-0.36,0.15,0.26,-0.04,0.03,0.06
2.482,-0.36,0.15,0.26,-0.04,0.03,0.06
2.482,-0.39,0.14,0.26,-0.04,0.03,0.06
2.485,-0.39,0.14,0.26,-0.05,0.02,0.06
2.487,-0.38,0.14,0.24,-0.05,0.02,0.06
2.487,-0.38,0.14,0.24,-0.05,0.02,0.06
2.49,-0.38,0.14,0.24,-0.05,0.01,0.06
2.49,-0.39,0.15,0.22,-0.05,0.01,0.06
2.492,-0.39,0.15,0.22,-0.05,0.01,0.06
2.494,-0.41,0.15,0.21,-0.05,0.01,0.06
2.494,-0.41,0.15,0.21,-0.06,0.00,0.06
2.498,-0.41,0.15,0.21,-0.06,-0.01,0.06
2.498,-0.41,0.15,0.21,-0.06,-0.01,0.06
2.498,-0.41,0.11,0.21,-0.06,-0.01,0.06
2.502,-0.41,0.11,0.21,-0.07,-0.02,0.06
2.502,-0.39,0.11,0.18,-0.07,-0.02,0.06
2.506,-0.39,0.11,0.18,-0.07,-0.03,0.06
2.507,-0.41,0.08,0.17,-0.07,-0.03,0.06
2.507,-0.41,0.08,0.17,-0.07,-0.03,0.05
2.51,-0.41,0.08,0.17,-0.07,-0.04,0.05
2.51,-0.39,0.04,0.15,-0.07,-0.04,0.05
2.51,-0.39,0.04,0.15,-0.07,-0.05,0.05
2.514,-0.37,0.03,0.16,-0.07,-0.05,0.05
2.514,-0.37,0.03,0.16,-0.07,-0.06,0.05
2.518,-0.37,0.03,0.16,-0.08,-0.06,0.04
2.518,-0.37,0.03,0.16,-0.08,-0.07,0.04
2.518,-0.35,0.02,0.14,-0.08,-0.07,0.04
2.524,-0.35,0.02,0.14,-0.08,-0.07,0.04
2.524,-0.34,0.00,0.12,-0.08,-0.07,0.04
2.527,-0.34,0.00,0.12,-0.08,-0.08,0.03
2.527,-0.34,0.00,0.12,-0.09,-0.08,0.03
2.527,-0.33,0.01,0.09,-0.09,-0.08,0.03
2.531,-0.33,0.01,0.09,-0.09,-0.08,0.02
2.531,-0.33,0.06,0.04,-0.09,-0.08,0.02
2.531,-0.33,0.06,0.04,-0.09,-0.09,0.02
2.535,-0.33,0.06,0.04,-0.09,-0.09,0.02
2.535,-0.30,0.07,0.01,-0.09,-0.09,0.02
2.543,-0.30,0.07,0.01,-0.10,-0.09,0.02
2.543,-0.30,0.07,0.01,-0.10,-0.09,0.01
2.543,-0.29,0.14,-0.02,-0.10,-0.09,0.01
2.543,-0.29,0.14,-0.02,-0.11,-0.09,0.01
2.544,-0.27,0.16,-0.05,-0.11,-0.09,0.01
2.545,-0.27,0.16,-0.05,-0.11,-0.09,0.01
2.548,-0.27,0.16,-0.05,-0.12,-0.08,0.00
2.548,-0.24,0.20,-0.09,-0.12,-0.08,0.00
2.551,-0.24,0.20,-0.09,-0.13,-0.08,0.00
2.551,-0.24,0.20,-0.09,-0.13,-0.08,-0.00
2.551,-0.20,0.20,-0.13,-0.13,-0.08,-0.00
2.556,-0.16,0.22,-0.16,-0.13,-0.08,-0.00
2.557,-0.16,0.22,-0.16,-0.14,-0.07,-0.00
2.558,-0.16,0.22,-0.16,-0.14,-0.07,-0.01
2.559,-0.16,0.22,-0.16,-0.15,-0.06,-0.01
2.559,-0.13,0.19,-0.16,-0.15,-0.06,-0.01
2.563,-0.13,0.19,-0.16,-0.15,-0.05,-0.01
2.563,-0.08,0.15,-0.16,-0.15,-0.05,-0.01
2.567,-0.08,0.15,-0.16,-0.16,-0.05,-0.01
2.567,-0.06,0.10,-0.18,-0.16,-0.05,-0.01
2.567,-0.06,0.10,-0.18,-0.16,-0.04,-0.02
2.571,-0.06,0.10,-0.18,-0.17,-0.03,-0.02
2.571,-0.06,0.10,-0.18,-0.18,-0.02,-0.02
2.571,-0.04,0.09,-0.20,-0.18,-0.02,-0.02
2.575,-0.04,0.09,-0.20,-0.18,-0.01,-0.02
2.575,-0.01,-0.00,-0.20,-0.18,-0.01,-0.02
2.579,-0.01,-0.00,-0.20,-0.19,0.00,-0.02
2.58,-0.01,-0.00,-0.20,-0.19,0.01,-0.02
2.58,0.00,-0.05,-0.21,-0.19,0.01,-0.02
2.583,0.00,-0.05,-0.21,-0.19,0.02,-0.01
2.583,0.01,-0.07,-0.23,-0.19,0.02,-0.01
2.586,0.01,-0.07,-0.23,-0.20,0.04,-0.02
2.587,0.01,-0.07,-0.23,-0.21,0.05,-0.01
2.588,0.02,-0.07,-0.23,-0.21,0.05,-0.01
2.59,0.02,-0.07,-0.23,-0.21,0.06,-0.01
2.591,0.05,-0.08,-0.24,-0.21,0.06,-0.01
2.591,0.05,-0.08,-0.24,-0.22,0.08,-0.01
2.595,0.05,-0.08,-0.24,-0.22,0.09,-0.01
2.595,0.07,-0.05,-0.23,-0.22,0.09,-0.01
2.599,0.07,-0.05,-0.23,-0.23,0.10,-0.01
2.599,0.07,-0.05,-0.23,-0.23,0.11,-0.00
2.599,0.07,-0.05,-0.23,-0.23,0.11,-0.00
2.603,0.07,-0.05,-0.23,-0.23,0.12,-0.00
2.603,0.08,-0.00,-0.21,-0.23,0.12,-0.00
2.621,0.08,-0.00,-0.21,-0.24,0.13,-0.00
2.621,0.07,0.06,-0.21,-0.24,0.13,-0.00
2.621,0.07,0.06,-0.21,-0.24,0.14,-0.00
2.621,0.07,0.06,-0.21,-0.24,0.15,-0.00
2.622,0.07,0.06,-0.21,-0.24,0.16,0.00
2.622,0.09,0.14,-0.19,-0.24,0.16,0.00
2.622,0.07,0.20,-0.18,-0.24,0.16,0.00
2.622,0.07,0.20,-0.18,-0.24,0.16,0.00
2.623,0.07,0.20,-0.18,-0.24,0.17,0.00
2.623,0.07,0.20,-0.18,-0.23,0.17,0.00
2.623,0.04,0.24,-0.15,-0.23,0.17,0.00
2.623,0.04,0.24,-0.15,-0.23,0.17,0.01
2.623,0.06,0.26,-0.13,-0.23,0.17,0.01
2.627,0.06,0.26,-0.13,-0.23,0.17,0.01
2.628,0.06,0.26,-0.13,-0.22,0.18,0.01
2.628,0.04,0.29,-0.10,-0.22,0.18,0.01
2.633,0.04,0.29,-0.10,-0.22,0.18,0.01
2.633,0.04,0.29,-0.10,-0.21,0.17,0.01
2.633,0.07,0.24,-0.08,-0.21,0.17,0.01
2.634,0.07,0.24,-0.08,-0.20,0.17,0.01
2.635,0.09,0.26,-0.05,-0.20,0.17,0.01
2.638,0.09,0.26,-0.05,-0.19,0.17,0.00
2.641,0.09,0.26,-0.05,-0.19,0.16,0.00
2.642,0.07,0.21,-0.03,-0.19,0.16,0.00
2.642,0.07,0.21,-0.03,-0.17,0.16,0.00
2.643,0.10,0.18,0.00,-0.17,0.16,0.00
2.647,0.10,0.18,0.00,-0.17,0.16,0.00
2.647,0.10,0.18,0.00,-0.16,0.15,0.00
2.647,0.10,0.14,-0.00,-0.16,0.15,0.00
2.651,0.10,0.14,-0.00,-0.15,0.14,0.00
2.651,0.11,0.09,0.02,-0.15,0.14,0.00
2.651,0.11,0.09,0.02,-0.14,0.14,0.01
2.654,0.11,0.09,0.02,-0.13,0.13,0.01
2.655,0.07,0.05,0.02,-0.13,0.13,0.01
2.659,0.07,0.05,0.02,-0.12,0.13,0.01
2.659,0.07,0.05,0.02,-0.11,0.12,0.01
2.659,0.06,0.04,-0.00,-0.11,0.12,0.01
2.662,0.06,0.04,-0.00,-0.11,0.12,0.01
2.662,0.08,0.00,-0.03,-0.11,0.12,0.01
2.666,0.08,0.00,-0.03,-0.10,0.11,0.01
2.666,0.05,0.04,-0.06,-0.10,0.11,0.01
2.666,0.05,0.04,-0.06,-0.09,0.11,0.01
2.67,0.05,0.04,-0.06,-0.08,0.10,0.01
2.671,0.05,0.04,-0.06,-0.08,0.10,0.01
2.671,0.08,0.04,-0.09,-0.08,0.10,0.01
2.674,0.08,0.06,-0.13,-0.08,0.10,0.01
2.674,0.08,0.06,-0.13,-0.07,0.09,0.02
2.679,0.10,0.09,-0.19,-0.07,0.09,0.02
2.682,0.10,0.09,-0.19,-0.06,0.09,0.02
2.682,0.10,0.09,-0.19,-0.06,0.08,0.02
2.682,0.10,0.09,-0.19,-0.06,0.08,0.02
2.683,0.11,0.12,-0.19,-0.06,0.08,0.02
2.686,0.11,0.12,-0.19,-0.05,0.07,0.02
2.686,0.12,0.13,-0.23,-0.05,0.07,0.02
2.686,0.12,0.13,-0.23,-0.05,0.07,0.02
2.69,0.12,0.13,-0.23,-0.05,0.07,0.02
2.691,0.12,0.13,-0.23,-0.05,0.06,0.02
2.691,0.12,0.14,-0.27,-0.05,0.06,0.02
2.696,0.16,0.12,-0.30,-0.05,0.06,0.02
2.696,0.16,0.12,-0.30,-0.05,0.06,0.02
2.699,0.16,0.12,-0.30,-0.04,0.06,0.02
2.699,0.16,0.12,-0.30,-0.04,0.05,0.02
2.7,0.16,0.13,-0.31,-0.04,0.05,0.02
2.703,0.16,0.13,-0.31,-0.04,0.05,0.02
2.703,0.16,0.12,-0.34,-0.04,0.05,0.02
2.706,0.16,0.12,-0.34,-0.05,0.05,0.02
2.708,0.15,0.12,-0.36,-0.05,0.05,0.02
2.709,0.15,0.12,-0.36,-0.05,0.05,0.02
2.71,0.15,0.12,-0.36,-0.04,0.05,0.02
2.711,0.15,0.12,-0.36,-0.05,0.04,0.02
2.711,0.18,0.09,-0.34,-0.05,0.04,0.02
2.715,0.18,0.09,-0.34,-0.05,0.04,0.02
2.715,0.18,0.09,-0.35,-0.05,0.04,0.02
2.719,0.18,0.09,-0.35,-0.04,0.04,0.02
2.719,0.18,0.09,-0.35,-0.04,0.04,0.02
2.719,0.21,0.10,-0.34,-0.04,0.04,0.02
2.722,0.21,0.10,-0.34,-0.04,0.04,0.02
2.723,0.20,0.10,-0.33,-0.04,0.04,0.02
2.726,0.20,0.10,-0.33,-0.04,0.04,0.02
2.727,0.21,0.09,-0.31,-0.04,0.04,0.02
2.729,0.21,0.09,-0.31,-0.04,0.05,0.02
2.73,0.21,0.09,-0.31,-0.04,0.05,0.02
2.731,0.21,0.09,-0.31,-0.03,0.05,0.02
2.731,0.22,0.09,-0.28,-0.03,0.05,0.02
2.736,0.20,0.04,-0.26,-0.03,0.05,0.02
2.736,0.20,0.04,-0.26,-0.03,0.05,0.02
2.739,0.20,0.04,-0.26,-0.03,0.05,0.02
2.739,0.20,0.04,-0.26,-0.02,0.05,0.02
2.739,0.21,0.08,-0.22,-0.02,0.05,0.02
2.742,0.21,0.08,-0.22,-0.02,0.06,0.03
2.745,0.20,0.03,-0.18,-0.02,0.06,0.03
2.745,0.20,0.03,-0.18,-0.01,0.06,0.03
2.749,0.20,0.03,-0.18,-0.01,0.06,0.03
2.749,0.20,0.03,-0.18,-0.00,0.06,0.03
2.749,0.21,-0.01,-0.18,-0.00,0.06,0.03
2.752,0.19,-0.04,-0.14,-0.00,0.06,0.03
2.753,0.19,-0.04,-0.14,0.01,0.07,0.03
2.757,0.19,-0.04,-0.14,0.01,0.07,0.03
2.757,0.21,-0.04,-0.13,0.01,0.07,0.03
2.76,0.21,-0.04,-0.13,0.02,0.07,0.03
2.777,0.21,-0.04,-0.13,0.03,0.08,0.03
2.777,0.21,-0.03,-0.11,0.03,0.08,0.03
2.778,0.21,-0.03,-0.11,0.03,0.08,0.03
2.778,0.18,-0.01,-0.12,0.03,0.08,0.03
2.778,0.18,-0.01,-0.12,0.04,0.08,0.03
2.778,0.18,-0.01,-0.12,0.04,0.09,0.03
2.778,0.18,-0.01,-0.12,0.05,0.09,0.03
2.778,0.20,-0.02,-0.11,0.05,0.09,0.03
2.779,0.20,-0.02,-0.11,0.05,0.10,0.04
2.779,0.20,-0.01,-0.13,0.05,0.10,0.04
2.779,0.15,0.00,-0.13,0.05,0.10,0.04
2.779,0.15,0.00,-0.13,0.06,0.10,0.04
2.779,0.15,0.00,-0.13,0.07,0.11,0.04
2.78,0.15,0.00,-0.13,0.07,0.11,0.04
2.78,0.15,0.00,-0.13,0.07,0.11,0.04
2.781,0.16,-0.00,-0.15,0.07,0.11,0.04
2.783,0.12,0.02,-0.15,0.07,0.11,0.04
2.784,0.12,0.02,-0.15,0.07,0.12,0.04
2.788,0.12,0.03,-0.15,0.07,0.12,0.04
2.789,0.12,0.03,-0.15,0.08,0.12,0.04
2.789,0.12,0.03,-0.15,0.08,0.12,0.05
2.792,0.12,0.03,-0.15,0.09,0.12,0.05
2.792,0.08,0.04,-0.16,0.09,0.12,0.05
2.796,0.08,0.04,-0.16,0.09,0.12,0.05
2.796,0.04,0.06,-0.15,0.09,0.12,0.05
2.796,0.04,0.06,-0.15,0.09,0.13,0.05
2.8,0.04,0.06,-0.15,0.10,0.12,0.06
2.8,0.01,0.07,-0.13,0.10,0.12,0.06
2.804,-0.03,0.10,-0.12,0.10,0.12,0.06
2.804,-0.03,0.10,-0.12,0.10,0.12,0.06
2.804,-0.03,0.10,-0.12,0.11,0.12,0.06
2.81,-0.06,0.08,-0.08,0.11,0.12,0.06
2.811,-0.06,0.08,-0.08,0.11,0.12,0.06
2.811,-0.06,0.08,-0.08,0.12,0.11,0.06
2.813,-0.06,0.13,-0.07,0.12,0.11,0.06
2.813,-0.06,0.13,-0.07,0.12,0.10,0.06
2.816,-0.06,0.13,-0.07,0.12,0.10,0.06
2.816,-0.11,0.13,-0.06,0.12,0.10,0.06
2.816,-0.11,0.13,-0.06,0.13,0.09,0.06
2.82,-0.11,0.13,-0.06,0.13,0.09,0.06
2.82,-0.09,0.12,-0.03,0.13,0.09,0.06
2.824,-0.09,0.12,-0.03,0.14,0.08,0.06
2.824,-0.11,0.08,-0.02,0.14,0.08,0.06
2.824,-0.11,0.08,-0.02,0.14,0.07,0.06
2.83,-0.11,0.08,-0.02,0.15,0.06,0.06
2.83,-0.11,0.08,-0.02,0.15,0.06,0.06
2.83,-0.13,0.11,-0.00,0.15,0.06,0.06
2.832,-0.13,0.11,-0.00,0.16,0.05,0.06
2.832,-0.16,0.11,-0.02,0.16,0.05,0.06
2.836,-0.16,0.11,-0.02,0.16,0.04,0.06
2.836,-0.16,0.13,-0.02,0.16,0.04,0.06
2.836,-0.16,0.13,-0.02,0.16,0.04,0.06
2.84,-0.14,0.13,-0.04,0.16,0.04,0.06
2.841,-0.14,0.13,-0.04,0.16,0.03,0.06
2.843,-0.14,0.13,-0.04,0.16,0.02,0.06
2.846,-0.13,0.15,-0.04,0.16,0.02,0.06
2.846,-0.13,0.15,-0.04,0.16,0.02,0.06
2.849,-0.13,0.15,-0.04,0.16,0.02,0.05
2.85,-0.12,0.17,-0.04,0.16,0.02,0.05
2.85,-0.12,0.17,-0.04,0.16,0.01,0.05
2.852,-0.08,0.19,-0.06,0.16,0.01,0.05
2.853,-0.08,0.19,-0.06,0.16,0.01,0.05
2.856,-0.06,0.17,-0.06,0.16,0.01,0.05
2.857,-0.06,0.17,-0.06,0.16,0.01,0.05
2.857,-0.06,0.17,-0.06,0.16,0.01,0.05
2.86,-0.06,0.17,-0.06,0.16,0.01,0.05
2.86,-0.09,0.16,-0.08,0.16,0.01,0.05
2.861,-0.09,0.16,-0.08,0.16,0.01,0.05
2.865,-0.10,0.11,-0.07,0.16,0.01,0.05
2.865,-0.10,0.11,-0.07,0.15,0.01,0.05
2.869,-0.09,0.09,-0.08,0.15,0.01,0.05
2.87,-0.09,0.09,-0.08,0.15,0.02,0.05
2.87,-0.09,0.09,-0.08,0.15,0.02,0.05
2.873,-0.10,0.02,-0.04,0.15,0.02,0.05
2.873,-0.10,0.02,-0.04,0.15,0.02,0.05
2.876,-0.12,-0.03,-0.05,0.15,0.02,0.05
2.878,-0.12,-0.03,-0.05,0.14,0.03,0.05
2.878,-0.12,-0.03,-0.05,0.14,0.03,0.05
2.881,-0.12,-0.03,-0.05,0.14,0.04,0.05
2.881,-0.12,-0.02,-0.04,0.14,0.04,0.05
2.885,-0.11,-0.05,-0.02,0.14,0.04,0.05
2.885,-0.11,-0.05,-0.02,0.14,0.04,0.05
2.885,-0.11,-0.05,-0.02,0.14,0.05,0.05
2.891,-0.11,-0.01,-0.00,0.14,0.05,0.05
2.891,-0.11,-0.01,-0.00,0.13,0.05,0.05
2.891,-0.11,-0.01,-0.00,0.13,0.06,0.05
2.892,-0.13,-0.00,0.00,0.13,0.06,0.05
2.894,-0.13,-0.00,0.00,0.13,0.06,0.06
2.897,-0.13,-0.00,0.00,0.13,0.07,0.06
2.897,-0.13,-0.00,0.00,0.12,0.07,0.05
2.897,-0.16,0.04,0.02,0.12,0.07,0.05
2.9,-0.16,0.04,0.02,0.12,0.08,0.05
2.901,-0.17,0.07,0.01,0.12,0.08,0.05
2.904,-0.17,0.07,0.01,0.12,0.08,0.05
2.905,-0.17,0.05,0.03,0.12,0.08,0.05
2.905,-0.17,0.05,0.03,0.12,0.08,0.05
2.909,-0.17,0.05,0.03,0.11,0.08,0.05
2.91,-0.14,0.10,0.03,0.11,0.08,0.05
2.91,-0.14,0.10,0.03,0.11,0.08,0.05
2.912,-0.13,0.08,0.04,0.11,0.08,0.05
2.934,-0.13,0.08,0.04,0.11,0.08,0.04
2.934,-0.13,0.07,0.05,0.11,0.08,0.04
2.934,-0.13,0.07,0.05,0.10,0.09,0.04
2.935,-0.13,0.07,0.05,0.10,0.08,0.04
2.935,-0.10,0.06,0.04,0.10,0.08,0.04
2.935,-0.10,0.06,0.04,0.10,0.08,0.04
2.936,-0.10,0.06,0.04,0.10,0.08,0.03
2.936,-0.09,0.04,0.03,0.10,0.08,0.03
2.936,-0.09,0.04,0.03,0.09,0.08,0.03
2.937,-0.09,0.04,0.03,0.09,0.08,0.02
2.937,-0.09,0.04,0.03,0.09,0.08,0.02
2.937,-0.07,0.03,0.04,0.09,0.08,0.02
2.937,-0.07,0.03,0.04,0.08,0.08,0.02
2.938,-0.04,0.07,0.02,0.08,0.08,0.02
2.938,-0.04,0.07,0.02,0.07,0.08,0.01
2.938,-0.03,0.09,-0.00,0.07,0.08,0.01
2.938,-0.03,0.09,-0.00,0.07,0.08,0.01
2.942,-0.03,0.09,-0.00,0.06,0.09,0.01
2.944,-0.05,0.09,-0.01,0.06,0.09,0.01
2.944,-0.05,0.09,-0.01,0.06,0.09,0.00
2.944,-0.02,0.12,-0.02,0.06,0.09,0.00
2.944,-0.02,0.12,-0.02,0.05,0.10,0.01
2.948,-0.04,0.14,-0.02,0.05,0.10,0.01
2.951,-0.04,0.14,-0.02,0.05,0.10,0.01
2.951,-0.04,0.14,-0.02,0.04,0.10,0.01
2.952,-0.04,0.20,-0.01,0.04,0.10,0.01
2.952,-0.04,0.20,-0.01,0.04,0.11,0.01
2.955,-0.04,0.20,-0.01,0.03,0.11,0.01
2.955,-0.03,0.15,-0.04,0.03,0.11,0.01
2.963,-0.03,0.15,-0.04,0.02,0.12,0.01
2.963,-0.03,0.15,-0.04,0.02,0.12,0.01
2.963,-0.00,0.14,-0.00,0.02,0.12,0.01
2.963,0.01,0.09,-0.01,0.02,0.12,0.01
2.964,0.01,0.09,-0.01,0.01,0.12,0.01
2.966,0.01,0.09,-0.01,0.01,0.13,0.01
2.967,0.01,0.09,-0.01,0.00,0.13,0.01
2.967,0.03,0.05,0.00,0.00,0.13,0.01
2.97,0.03,0.05,0.00,-0.00,0.13,0.01
2.97,0.04,-0.03,0.02,-0.00,0.13,0.01
2.977,0.04,-0.03,0.02,-0.01,0.14,0.01
2.978,0.05,-0.06,0.01,-0.01,0.14,0.01
2.978,0.05,-0.06,0.01,-0.01,0.14,0.01
2.978,0.05,-0.06,0.01,-0.01,0.14,0.01
2.979,0.05,-0.06,0.01,-0.02,0.14,0.01
2.979,0.02,-0.09,0.03,-0.02,0.14,0.01
2.983,0.02,-0.08,0.01,-0.02,0.14,0.01
2.983,0.02,-0.08,0.01,-0.02,0.14,0.02
2.987,0.02,-0.08,0.01,-0.03,0.14,0.02
2.987,0.00,-0.06,-0.00,-0.03,0.14,0.02
2.987,0.00,-0.06,-0.00,-0.04,0.14,0.02
2.99,0.00,-0.06,-0.00,-0.04,0.13,0.02
2.993,-0.01,-0.02,-0.03,-0.04,0.13,0.02
2.994,-0.01,-0.02,-0.03,-0.05,0.13,0.02
2.994,-0.06,-0.00,-0.00,-0.05,0.13,0.02
2.996,-0.06,-0.00,-0.00,-0.05,0.12,0.03
2.998,-0.06,-0.00,-0.00,-0.05,0.11,0.03
2.999,-0.09,0.01,-0.02,-0.05,0.11,0.03
2.999,-0.09,0.01,-0.02,-0.06,0.11,0.03
3.003,-0.09,0.01,-0.02,-0.06,0.10,0.04
3.004,-0.14,0.08,-0.04,-0.06,0.10,0.04
3.006,-0.14,0.08,-0.04,-0.07,0.08,0.04
3.006,-0.11,0.07,-0.02,-0.07,0.08,0.04
3.007,-0.11,0.07,-0.02,-0.07,0.07,0.04
3.01,-0.11,0.07,-0.02,-0.07,0.06,0.04
3.01,-0.15,0.10,-0.02,-0.07,0.06,0.04
3.015,-0.15,0.10,-0.02,-0.08,0.05,0.04
3.015,-0.15,0.10,-0.02,-0.08,0.03,0.04
3.015,-0.11,0.09,-0.02,-0.08,0.03,0.04
3.018,-0.11,0.09,-0.02,-0.08,0.02,0.04
3.018,-0.11,0.09,-0.02,-0.08,0.00,0.04
3.019,-0.13,0.08,-0.01,-0.08,0.00,0.04
3.023,-0.11,0.07,-0.01,-0.08,0.00,0.04
3.023,-0.11,0.07,-0.01,-0.08,-0.01,0.04
3.027,-0.11,0.07,-0.01,-0.09,-0.03,0.04
3.029,-0.11,0.07,-0.01,-0.09,-0.04,0.03
3.029,-0.11,0.02,-0.02,-0.09,-0.04,0.03
3.03,-0.11,0.02,-0.02,-0.09,-0.06,0.03
3.031,-0.13,-0.02,-0.00,-0.09,-0.06,0.03
3.034,-0.13,-0.02,-0.00,-0.09,-0.07,0.03
3.035,-0.13,-0.02,-0.00,-0.09,-0.09,0.03
3.036,-0.09,-0.06,-0.00,-0.09,-0.09,0.03
3.039,-0.09,-0.06,-0.00,-0.09,-0.10,0.03
3.039,-0.09,-0.08,0.00,-0.09,-0.10,0.03
3.039,-0.09,-0.08,0.00,-0.09,-0.11,0.02
3.044,-0.09,-0.08,0.00,-0.09,-0.12,0.02
3.044,-0.10,-0.10,-0.00,-0.09,-0.12,0.02
3.046,-0.10,-0.10,-0.00,-0.09,-0.13,0.02
3.047,-0.11,-0.10,-0.01,-0.09,-0.13,0.02
3.048,-0.11,-0.10,-0.01,-0.10,-0.14,0.02
3.05,-0.11,-0.10,-0.01,-0.10,-0.14,0.02
3.051,-0.09,-0.11,-0.05,-0.10,-0.14,0.02
3.055,-0.09,-0.11,-0.05,-0.09,-0.15,0.02
3.055,-0.09,-0.11,-0.05,-0.10,-0.15,0.02
3.055,-0.09,-0.10,-0.05,-0.10,-0.15,0.02
3.058,-0.09,-0.10,-0.05,-0.10,-0.15,0.02
3.059,-0.09,-0.10,-0.05,-0.10,-0.15,0.02
3.063,-0.07,-0.10,-0.06,-0.10,-0.15,0.02
3.063,-0.06,-0.09,-0.09,-0.10,-0.15,0.02
3.063,-0.06,-0.09,-0.09,-0.10,-0.15,0.02
3.066,-0.06,-0.09,-0.09,-0.10,-0.14,0.02
3.084,-0.06,-0.09,-0.09,-0.10,-0.14,0.02
3.085,-0.01,-0.07,-0.11,-0.10,-0.14,0.02
3.085,-0.01,-0.07,-0.11,-0.10,-0.14,0.02
3.085,-0.00,-0.01,-0.10,-0.10,-0.14,0.02
3.085,-0.00,-0.01,-0.10,-0.10,-0.13,0.01
3.086,-0.00,-0.01,-0.10,-0.10,-0.13,0.01
3.086,0.03,0.02,-0.11,-0.10,-0.13,0.01
3.086,0.03,0.02,-0.11,-0.11,-0.12,0.01
3.086,0.03,0.03,-0.12,-0.11,-0.12,0.01
3.087,0.03,0.03,-0.12,-0.10,-0.11,0.01
3.087,0.03,0.03,-0.12,-0.11,-0.10,0.01
3.087,0.05,0.07,-0.13,-0.11,-0.10,0.01
3.088,0.05,0.07,-0.13,-0.11,-0.09,0.01
3.088,0.05,0.07,-0.13,-0.10,-0.09,0.01
3.088,0.06,0.06,-0.13,-0.10,-0.09,0.01
3.093,0.06,0.06,-0.13,-0.11,-0.07,0.01
3.094,0.06,0.11,-0.13,-0.11,-0.07,0.01
3.094,0.06,0.11,-0.13,-0.11,-0.06,0.00
3.099,0.09,0.09,-0.13,-0.11,-0.06,0.00
3.1,0.09,0.09,-0.13,-0.10,-0.05,0.00
3.1,0.09,0.09,-0.13,-0.10,-0.04,0.00
3.1,0.12,0.09,-0.11,-0.10,-0.04,0.00
3.1,0.12,0.09,-0.11,-0.10,-0.03,0.00
3.103,0.10,0.07,-0.10,-0.10,-0.03,0.00
3.103,0.10,0.07,-0.10,-0.10,-0.02,0.00
3.106,0.10,0.07,-0.10,-0.10,-0.00,0.00
3.106,0.10,0.07,-0.10,-0.09,0.01,-0.00
3.107,0.15,0.07,-0.11,-0.09,0.01,-0.00
3.11,0.15,0.07,-0.11,-0.09,0.02,-0.00
3.11,0.12,0.04,-0.09,-0.09,0.02,-0.00
3.116,0.12,0.04,-0.09,-0.09,0.03,-0.00
3.116,0.12,0.04,-0.09,-0.08,0.04,-0.00
3.117,0.15,0.02,-0.07,-0.08,0.04,-0.00
3.118,0.15,0.02,-0.07,-0.08,0.06,-0.00
3.118,0.14,0.02,-0.08,-0.08,0.06,-0.00
3.118,0.14,0.02,-0.08,-0.07,0.07,-0.01
3.122,0.13,-0.01,-0.07,-0.07,0.07,-0.01
3.122,0.13,-0.01,-0.07,-0.07,0.08,-0.01
3.127,0.13,-0.01,-0.07,-0.07,0.09,-0.01
3.127,0.13,-0.01,-0.07,-0.07,0.11,-0.01
3.127,0.14,0.00,-0.07,-0.07,0.11,-0.01
3.13,0.14,0.00,-0.07,-0.06,0.12,-0.01
3.13,0.11,0.01,-0.06,-0.06,0.12,-0.01
3.135,0.11,0.01,-0.06,-0.06,0.13,-0.00
3.135,0.13,0.01,-0.07,-0.06,0.13,-0.00
3.136,0.13,0.01,-0.07,-0.05,0.14,-0.01
3.138,0.13,0.01,-0.07,-0.05,0.15,-0.01
3.139,0.13,0.01,-0.07,-0.04,0.16,-0.01
3.139,0.11,-0.01,-0.08,-0.04,0.16,-0.01
3.143,0.11,-0.01,-0.08,-0.04,0.17,-0.01
3.143,0.14,-0.00,-0.08,-0.04,0.17,-0.01
3.144,0.14,-0.00,-0.08,-0.03,0.18,-0.01
3.149,0.14,-0.02,-0.07,-0.03,0.18,-0.01
3.149,0.14,-0.02,-0.07,-0.03,0.19,-0.01
3.15,0.14,-0.02,-0.07,-0.03,0.19,-0.01
3.152,0.16,-0.00,-0.06,-0.03,0.19,-0.01
3.152,0.16,-0.00,-0.06,-0.02,0.20,-0.01
3.156,0.16,-0.00,-0.06,-0.02,0.20,-0.01
3.156,0.17,-0.00,-0.08,-0.02,0.20,-0.01
3.157,0.17,-0.00,-0.08,-0.02,0.21,-0.01
3.162,0.17,-0.00,-0.08,-0.01,0.21,-0.01
3.162,0.16,0.02,-0.06,-0.01,0.21,-0.01
3.164,0.16,0.02,-0.06,-0.01,0.22,-0.01
3.165,0.16,0.06,-0.08,-0.01,0.22,-0.01
3.165,0.16,0.06,-0.08,-0.00,0.22,-0.00
3.169,0.16,0.06,-0.08,-0.00,0.22,-0.00
3.169,0.15,0.08,-0.08,-0.00,0.22,-0.00
3.169,0.15,0.08,-0.08,0.00,0.23,-0.00
3.171,0.17,0.09,-0.07,0.00,0.23,-0.00
3.173,0.17,0.09,-0.07,0.01,0.23,-0.00
3.175,0.17,0.09,-0.07,0.01,0.23,-0.00
3.175,0.14,0.09,-0.10,0.01,0.23,-0.00
3.177,0.14,0.09,-0.10,0.01,0.23,0.00
3.18,0.14,0.09,-0.10,0.02,0.23,0.00
3.181,0.12,0.09,-0.07,0.02,0.23,0.00
3.184,0.12,0.09,-0.07,0.02,0.23,0.01
3.184,0.08,0.07,-0.05,0.02,0.23,0.01
3.184,0.08,0.07,-0.05,0.02,0.22,0.01
3.189,0.08,0.07,-0.05,0.03,0.22,0.01
3.189,0.08,0.07,-0.05,0.03,0.22,0.01
3.19,0.02,0.08,-0.02,0.03,0.22,0.01
3.195,0.02,0.06,0.00,0.03,0.22,0.01
3.195,0.02,0.06,0.00,0.04,0.21,0.02
3.197,0.02,0.06,0.00,0.05,0.20,0.02
3.197,0.02,0.06,0.00,0.05,0.20,0.02
3.197,0.01,0.02,0.00,0.05,0.20,0.02
3.2,-0.00,-0.02,0.04,0.05,0.20,0.02
3.2,-0.00,-0.02,0.04,0.06,0.19,0.02
3.205,-0.00,-0.02,0.04,0.06,0.18,0.02
3.205,0.01,-0.06,0.06,0.06,0.18,0.02
3.205,0.01,-0.06,0.06,0.07,0.18,0.02
3.209,0.00,-0.07,0.07,0.07,0.18,0.02
3.209,0.00,-0.07,0.07,0.07,0.17,0.02
3.209,0.00,-0.07,0.07,0.08,0.16,0.02
3.212,0.01,-0.07,0.08,0.08,0.16,0.02
3.212,0.01,-0.07,0.08,0.08,0.16,0.02
3.216,0.01,-0.07,0.08,0.09,0.15,0.02
3.216,-0.01,-0.07,0.08,0.09,0.15,0.02
3.217,-0.01,-0.07,0.08,0.09,0.14,0.02
3.22,-0.01,-0.07,0.08,0.10,0.13,0.02
3.235,-0.03,-0.08,0.11,0.10,0.13,0.02
3.235,-0.02,-0.06,0.09,0.10,0.13,0.02
3.235,-0.02,-0.06,0.09,0.10,0.13,0.02
3.235,-0.02,-0.06,0.09,0.11,0.12,0.02
3.235,-0.02,-0.06,0.10,0.11,0.12,0.02
3.235,-0.02,-0.06,0.10,0.12,0.11,0.02
3.235,-0.02,-0.06,0.10,0.12,0.11,0.02
3.235,-0.04,-0.05,0.09,0.12,0.11,0.02
3.236,-0.04,-0.05,0.09,0.12,0.10,0.02
3.239,-0.04,-0.05,0.09,0.12,0.10,0.02
3.239,-0.05,-0.01,0.10,0.12,0.10,0.02
3.239,-0.05,-0.01,0.10,0.13,0.10,0.02
3.243,-0.03,-0.01,0.09,0.13,0.10,0.02
3.243,-0.03,-0.01,0.09,0.13,0.10,0.02
3.244,-0.03,-0.01,0.09,0.13,0.09,0.02
3.244,-0.06,-0.02,0.06,0.13,0.09,0.02
3.244,-0.06,-0.02,0.06,0.14,0.09,0.02
3.249,-0.06,-0.02,0.06,0.14,0.09,0.01
3.249,-0.06,-0.02,0.06,0.14,0.08,0.02
3.249,-0.04,-0.02,0.07,0.14,0.08,0.02
3.251,-0.03,-0.04,0.04,0.14,0.08,0.02
3.252,-0.03,-0.04,0.04,0.14,0.09,0.01
3.256,-0.03,-0.04,0.04,0.14,0.08,0.01
3.256,-0.04,-0.05,0.03,0.14,0.08,0.01
3.256,-0.04,-0.05,0.03,0.14,0.08,0.01
3.261,-0.07,-0.05,0.01,0.14,0.08,0.01
3.261,-0.07,-0.05,0.01,0.14,0.08,0.01
3.264,-0.07,-0.05,0.01,0.14,0.09,0.02
3.265,-0.09,-0.06,0.00,0.14,0.09,0.02
3.265,-0.09,-0.06,0.00,0.14,0.09,0.02
3.269,-0.07,-0.08,0.02,0.14,0.09,0.02
3.269,-0.07,-0.08,0.02,0.13,0.09,0.02
3.27,-0.07,-0.08,0.02,0.13,0.08,0.02
3.271,-0.09,-0.07,0.01,0.13,0.08,0.02
3.272,-0.09,-0.07,0.01,0.13,0.09,0.02
3.276,-0.09,-0.07,0.01,0.13,0.08,0.02
3.276,-0.11,-0.05,0.01,0.13,0.08,0.02
3.277,-0.11,-0.05,0.01,0.12,0.08,0.02
3.281,-0.09,-0.02,0.01,0.12,0.08,0.02
3.282,-0.09,-0.02,0.01,0.12,0.08,0.02
3.284,-0.13,0.02,0.02,0.12,0.08,0.02
3.284,-0.13,0.02,0.02,0.12,0.08,0.02
3.284,-0.13,0.02,0.02,0.11,0.09,0.03
3.289,-0.12,0.04,0.03,0.11,0.09,0.03
3.289,-0.12,0.04,0.03,0.11,0.08,0.03
3.289,-0.12,0.04,0.03,0.11,0.08,0.03
3.292,-0.15,0.12,0.05,0.11,0.08,0.03
3.292,-0.15,0.12,0.05,0.11,0.08,0.03
3.296,-0.15,0.12,0.05,0.11,0.08,0.03
3.297,-0.16,0.15,0.05,0.11,0.08,0.03
3.297,-0.16,0.15,0.05,0.11,0.07,0.03
3.3,-0.16,0.16,0.08,0.11,0.07,0.03
3.3,-0.16,0.16,0.08,0.10,0.07,0.03
3.305,-0.21,0.15,0.11,0.10,0.07,0.03
3.305,-0.21,0.15,0.11,0.10,0.07,0.03
3.305,-0.21,0.15,0.11,0.10,0.07,0.03
3.309,-0.20,0.15,0.12,0.10,0.07,0.03
3.309,-0.20,0.15,0.12,0.10,0.07,0.03
3.309,-0.20,0.15,0.12,0.11,0.06,0.03
3.311,-0.21,0.13,0.16,0.11,0.06,0.03
3.313,-0.21,0.13,0.16,0.11,0.06,0.03
3.317,-0.21,0.13,0.16,0.11,0.06,0.03
3.317,-0.21,0.13,0.16,0.11,0.06,0.03
3.317,-0.21,0.11,0.20,0.11,0.06,0.03
3.321,-0.21,0.11,0.20,0.11,0.05,0.03
3.324,-0.24,0.08,0.21,0.11,0.05,0.03
3.325,-0.23,0.04,0.24,0.11,0.05,0.03
3.325,-0.23,0.04,0.24,0.11,0.06,0.03
3.325,-0.23,0.04,0.24,0.12,0.06,0.03
3.329,-0.25,0.04,0.26,0.12,0.06,0.03
3.333,-0.27,0.04,0.28,0.12,0.06,0.03
3.333,-0.27,0.04,0.28,0.12,0.05,0.03
3.333,-0.27,0.04,0.28,0.12,0.05,0.03
3.333,-0.27,0.04,0.28,0.12,0.05,0.03
3.337,-0.27,0.04,0.28,0.12,0.05,0.03
3.337,-0.26,0.05,0.27,0.12,0.05,0.03
3.337,-0.26,0.05,0.27,0.12,0.05,0.03
3.34,-0.26,0.05,0.27,0.13,0.05,0.03
3.34,-0.28,0.05,0.26,0.13,0.05,0.03
3.343,-0.28,0.05,0.26,0.13,0.05,0.03
3.343,-0.29,0.07,0.28,0.13,0.05,0.03
3.346,-0.29,0.07,0.28,0.13,0.05,0.03
3.348,-0.26,0.07,0.26,0.13,0.05,0.03
3.348,-0.26,0.07,0.26,0.13,0.05,0.03
3.348,-0.26,0.07,0.26,0.13,0.05,0.03
3.353,-0.27,0.09,0.23,0.13,0.05,0.03
3.353,-0.27,0.09,0.23,0.13,0.05,0.02
3.357,-0.27,0.09,0.23,0.13,0.05,0.02
3.357,-0.25,0.06,0.24,0.13,0.05,0.02
3.36,-0.25,0.06,0.24,0.13,0.05,0.02
3.363,-0.25,0.06,0.24,0.13,0.05,0.01
3.364,-0.20,0.04,0.22,0.13,0.05,0.01
3.367,-0.18,0.04,0.20,0.13,0.05,0.01
3.368,-0.18,0.04,0.20,0.13,0.05,0.01
3.368,-0.18,0.04,0.20,0.12,0.05,0.01
3.37,-0.13,0.00,0.18,0.12,0.05,0.01
3.37,-0.13,0.00,0.18,0.12,0.06,0.00
3.37,-0.13,0.00,0.18,0.12,0.06,0.00
3.373,-0.10,0.01,0.15,0.12,0.06,0.00
3.373,-0.10,0.01,0.15,0.11,0.06,-0.00
3.397,-0.10,0.03,0.11,0.11,0.06,-0.00
3.397,-0.10,0.03,0.11,0.10,0.06,-0.01
3.397,-0.10,0.03,0.11,0.10,0.06,-0.01
3.398,-0.10,0.03,0.11,0.09,0.07,-0.01
3.398,-0.08,0.04,0.09,0.09,0.07,-0.01
3.398,-0.08,0.04,0.08,0.09,0.07,-0.01
3.398,-0.08,0.04,0.08,0.08,0.07,-0.01
3.398,-0.08,0.04,0.08,0.08,0.08,-0.01
3.398,-0.08,0.04,0.08,0.07,0.08,-0.02
3.398,-0.08,0.04,0.08,0.06,0.09,-0.01
3.399,-0.09,0.05,0.06,0.06,0.09,-0.01
3.399,-0.11,0.09,0.04,0.06,0.09,-0.01
3.399,-0.11,0.09,0.04,0.05,0.09,-0.01
3.399,-0.12,0.10,0.05,0.05,0.09,-0.01
3.399,-0.12,0.10,0.05,0.04,0.10,-0.01
3.399,-0.12,0.10,0.05,0.03,0.10,-0.01
3.402,-0.13,0.12,0.04,0.03,0.10,-0.01
3.402,-0.13,0.12,0.04,0.03,0.11,-0.01
3.403,-0.13,0.12,0.04,0.02,0.11,-0.01
3.403,-0.11,0.10,0.05,0.02,0.11,-0.01
3.404,-0.11,0.10,0.05,0.01,0.11,-0.00
3.408,-0.11,0.07,0.08,0.01,0.11,-0.00
3.408,-0.11,0.07,0.08,0.00,0.12,-0.00
3.408,-0.11,0.07,0.08,-0.00,0.12,-0.00
3.412,-0.08,0.07,0.10,-0.00,0.12,-0.00
3.413,-0.08,0.07,0.10,-0.01,0.12,0.00
3.416,-0.08,0.07,0.10,-0.02,0.12,0.00
3.416,-0.09,0.02,0.13,-0.02,0.12,0.00
3.416,-0.09,0.02,0.13,-0.02,0.12,0.00
3.419,-0.05,-0.00,0.16,-0.02,0.12,0.00
3.42,-0.05,-0.00,0.16,-0.02,0.12,0.00
3.424,-0.05,-0.00,0.16,-0.03,0.12,0.01
3.424,-0.06,-0.01,0.19,-0.03,0.12,0.01
3.424,-0.06,-0.01,0.19,-0.03,0.12,0.01
3.43,-0.07,-0.06,0.23,-0.03,0.12,0.01
3.432,-0.08,-0.05,0.22,-0.03,0.12,0.01
3.432,-0.08,-0.05,0.22,-0.03,0.11,0.01
3.432,-0.08,-0.05,0.22,-0.04,0.11,0.01
3.432,-0.08,-0.05,0.22,-0.04,0.10,0.01
3.436,-0.08,-0.05,0.22,-0.04,0.09,0.01
3.436,-0.10,-0.06,0.24,-0.04,0.09,0.01
3.436,-0.10,-0.06,0.24,-0.04,0.09,0.00
3.44,-0.09,-0.06,0.26,-0.04,0.09,0.00
3.44,-0.09,-0.06,0.26,-0.04,0.08,0.00
3.445,-0.10,-0.03,0.26,-0.04,0.08,0.00
3.445,-0.10,-0.03,0.26,-0.04,0.07,0.00
3.445,-0.10,-0.03,0.26,-0.04,0.06,0.00
3.45,-0.08,-0.02,0.25,-0.04,0.06,0.00
3.45,-0.08,-0.02,0.25,-0.04,0.05,0.00
3.45,-0.08,-0.02,0.25,-0.04,0.04,-0.00
3.452,-0.07,-0.01,0.23,-0.04,0.04,-0.00
3.452,-0.07,-0.01,0.23,-0.05,0.03,-0.00
3.456,-0.07,-0.01,0.23,-0.05,0.01,-0.01
3.456,-0.03,0.01,0.21,-0.05,0.01,-0.01
3.456,-0.03,0.01,0.21,-0.05,0.00,-0.01
3.46,-0.03,0.01,0.21,-0.05,-0.01,-0.01
3.461,0.02,0.03,0.19,-0.05,-0.01,-0.01
3.464,0.02,0.03,0.19,-0.05,-0.02,-0.02
3.465,-0.00,0.04,0.19,-0.05,-0.02,-0.02
3.465,-0.00,0.04,0.19,-0.06,-0.03,-0.02
3.469,-0.00,0.04,0.19,-0.06,-0.04,-0.02
3.469,-0.00,0.04,0.19,-0.06,-0.05,-0.02
3.469,0.01,0.10,0.14,-0.06,-0.05,-0.02
3.472,0.02,0.12,0.12,-0.06,-0.05,-0.02
3.473,0.02,0.12,0.12,-0.07,-0.05,-0.02
3.477,0.05,0.13,0.10,-0.07,-0.05,-0.02
3.477,0.05,0.13,0.10,-0.07,-0.06,-0.02
3.478,0.05,0.13,0.10,-0.08,-0.06,-0.02
3.484,0.05,0.13,0.10,-0.08,-0.07,-0.02
3.484,0.08,0.13,0.09,-0.08,-0.07,-0.02
3.486,0.08,0.13,0.09,-0.08,-0.07,-0.02
3.486,0.14,0.12,0.07,-0.08,-0.07,-0.02
3.486,0.14,0.12,0.07,-0.09,-0.06,-0.02
3.489,0.15,0.08,0.02,-0.09,-0.06,-0.02
3.489,0.15,0.08,0.02,-0.09,-0.06,-0.02
3.49,0.15,0.08,0.02,-0.10,-0.06,-0.02
3.492,0.19,0.06,0.04,-0.10,-0.06,-0.02
3.493,0.19,0.06,0.04,-0.10,-0.06,-0.02
3.497,0.24,0.00,0.04,-0.10,-0.06,-0.02
3.497,0.24,0.00,0.04,-0.10,-0.05,-0.02
3.498,0.24,0.00,0.04,-0.11,-0.04,-0.02
3.501,0.24,0.00,0.04,-0.11,-0.04,-0.02
3.501,0.26,-0.03,0.04,-0.11,-0.04,-0.02
3.504,0.26,-0.07,0.06,-0.11,-0.04,-0.02
3.505,0.26,-0.07,0.06,-0.11,-0.03,-0.02
3.505,0.26,-0.07,0.06,-0.12,-0.02,-0.02
3.509,0.29,-0.13,0.06,-0.12,-0.02,-0.02
3.509,0.29,-0.13,0.06,-0.12,-0.01,-0.02
3.509,0.29,-0.13,0.06,-0.12,-0.00,-0.02
3.512,0.28,-0.20,0.07,-0.12,-0.00,-0.02
3.513,0.28,-0.20,0.07,-0.12,0.00,-0.02
3.516,0.28,-0.20,0.07,-0.13,0.01,-0.02
3.517,0.28,-0.24,0.04,-0.13,0.01,-0.02
3.517,0.28,-0.24,0.04,-0.13,0.02,-0.01
3.52,0.27,-0.21,0.05,-0.13,0.02,-0.01
3.52,0.27,-0.21,0.05,-0.13,0.03,-0.02
3.524,0.25,-0.22,0.05,-0.13,0.03,-0.02
3.524,0.25,-0.22,0.05,-0.13,0.03,-0.01
3.525,0.25,-0.22,0.05,-0.13,0.04,-0.01
3.529,0.28,-0.19,0.07,-0.13,0.04,-0.01
3.55,0.28,-0.19,0.07,-0.13,0.04,-0.01
3.551,0.28,-0.19,0.07,-0.13,0.04,-0.01
3.551,0.24,-0.13,0.04,-0.13,0.04,-0.01
3.551,0.24,-0.13,0.04,-0.13,0.05,-0.01
3.551,0.21,-0.09,0.04,-0.13,0.05,-0.01
3.552,0.21,-0.09,0.04,-0.13,0.04,-0.01
3.552,0.21,-0.09,0.04,-0.13,0.04,-0.01
3.552,0.17,-0.05,0.04,-0.13,0.04,-0.01
3.553,0.17,-0.05,0.04,-0.13,0.04,-0.01
3.553,0.14,0.05,0.03,-0.13,0.04,-0.01
3.553,0.14,0.05,0.03,-0.13,0.04,-0.00
3.554,0.14,0.05,0.03,-0.13,0.03,-0.00
3.554,0.14,0.05,0.03,-0.13,0.03,-0.00
3.554,0.12,0.07,0.03,-0.13,0.03,-0.00
3.555,0.12,0.07,0.03,-0.12,0.02,0.00
3.555,0.10,0.11,0.02,-0.12,0.02,0.00
3.555,0.10,0.11,0.02,-0.12,0.01,0.00
3.556,0.10,0.11,0.02,-0.12,0.00,0.00
3.556,0.10,0.15,0.06,-0.12,0.00,0.00
3.557,0.10,0.15,0.06,-0.11,-0.01,0.00
3.558,0.10,0.15,0.06,-0.11,-0.02,0.00
3.559,0.11,0.15,0.06,-0.11,-0.02,0.00
3.564,0.10,0.16,0.09,-0.11,-0.02,0.00
3.564,0.10,0.16,0.09,-0.10,-0.03,0.00
3.566,0.10,0.16,0.09,-0.10,-0.04,0.01
3.566,0.10,0.12,0.09,-0.10,-0.04,0.01
3.566,0.10,0.12,0.09,-0.09,-0.05,0.00
3.57,0.10,0.12,0.09,-0.09,-0.06,0.01
3.57,0.07,0.11,0.08,-0.09,-0.06,0.01
3.574,0.07,0.11,0.08,-0.08,-0.07,0.01
3.574,0.07,0.11,0.08,-0.08,-0.08,0.01
3.574,0.07,0.06,0.08,-0.08,-0.08,0.01
3.581,0.07,0.01,0.08,-0.08,-0.08,0.01
3.582,0.07,0.01,0.08,-0.07,-0.09,0.01
3.582,0.07,0.01,0.08,-0.06,-0.09,0.01
3.582,0.07,0.01,0.08,-0.06,-0.10,0.01
3.583,0.05,-0.03,0.04,-0.06,-0.10,0.01
3.585,0.05,-0.03,0.04,-0.05,-0.11,0.01
3.586,0.04,-0.07,0.01,-0.05,-0.11,0.01
3.586,0.04,-0.07,0.01,-0.05,-0.11,0.02
3.59,0.04,-0.07,0.01,-0.05,-0.12,0.02
3.59,0.06,-0.10,0.00,-0.05,-0.12,0.02
3.593,0.06,-0.10,0.00,-0.05,-0.12,0.02
3.596,0.06,-0.10,0.00,-0.05,-0.13,0.02
3.596,0.04,-0.10,-0.04,-0.05,-0.13,0.02
3.598,0.04,-0.10,-0.04,-0.05,-0.13,0.02
3.598,0.04,-0.10,-0.04,-0.05,-0.14,0.02
3.6,0.04,-0.13,-0.07,-0.05,-0.14,0.02
3.602,0.04,-0.13,-0.07,-0.04,-0.14,0.02
3.602,0.04,-0.15,-0.12,-0.04,-0.14,0.02
3.606,0.04,-0.15,-0.12,-0.04,-0.14,0.02
3.606,0.04,-0.15,-0.12,-0.04,-0.15,0.02
3.606,0.03,-0.14,-0.13,-0.04,-0.15,0.02
3.61,0.03,-0.14,-0.13,-0.05,-0.15,0.02
3.61,0.03,-0.11,-0.16,-0.05,-0.15,0.02
3.615,0.03,-0.11,-0.16,-0.05,-0.15,0.02
3.616,0.02,-0.12,-0.17,-0.05,-0.15,0.02
3.616,0.02,-0.12,-0.17,-0.05,-0.15,0.02
3.618,0.02,-0.12,-0.17,-0.05,-0.15,0.02
3.619,0.02,-0.12,-0.17,-0.05,-0.15,0.02
3.619,0.00,-0.09,-0.18,-0.05,-0.15,0.02
3.623,0.00,-0.09,-0.18,-0.05,-0.15,0.02
3.623,0.02,-0.07,-0.18,-0.05,-0.15,0.02
3.628,0.02,-0.07,-0.18,-0.05,-0.15,0.02
3.628,-0.01,-0.02,-0.19,-0.05,-0.15,0.02
3.628,-0.01,-0.02,-0.19,-0.05,-0.15,0.02
3.631,-0.01,-0.02,-0.19,-0.05,-0.15,0.02
3.631,-0.05,-0.01,-0.19,-0.05,-0.15,0.02
3.635,-0.05,-0.01,-0.19,-0.05,-0.14,0.02
3.635,-0.05,-0.01,-0.19,-0.05,-0.14,0.02
3.635,-0.04,0.01,-0.18,-0.05,-0.14,0.02
3.638,-0.04,0.01,-0.18,-0.04,-0.14,0.02
3.64,-0.09,0.05,-0.14,-0.04,-0.14,0.02
3.64,-0.09,0.05,-0.14,-0.05,-0.14,0.02
3.643,-0.09,0.05,-0.14,-0.04,-0.14,0.02
3.643,-0.09,0.06,-0.13,-0.04,-0.14,0.02
3.647,-0.09,0.06,-0.13,-0.04,-0.13,0.03
3.647,-0.09,0.06,-0.13,-0.04,-0.13,0.03
3.647,-0.09,0.06,-0.09,-0.04,-0.13,0.03
3.651,-0.09,0.06,-0.09,-0.04,-0.13,0.03
3.651,-0.11,0.04,-0.07,-0.04,-0.13,0.03
3.655,-0.11,0.04,-0.07,-0.03,-0.13,0.03
3.655,-0.11,0.04,-0.07,-0.02,-0.13,0.03
3.655,-0.10,0.03,-0.03,-0.02,-0.13,0.03
3.658,-0.10,0.03,-0.03,-0.02,-0.12,0.03
3.659,-0.10,0.03,-0.03,-0.01,-0.12,0.03
3.659,-0.15,0.01,-0.00,-0.01,-0.12,0.03
3.664,-0.12,-0.01,0.02,-0.01,-0.12,0.03
3.665,-0.12,-0.01,0.02,-0.01,-0.12,0.03
3.666,-0.12,-0.01,0.02,0.00,-0.12,0.03
3.669,-0.16,-0.02,0.01,0.00,-0.12,0.03
3.669,-0.16,-0.02,0.01,0.01,-0.12,0.03
3.671,-0.16,-0.02,0.01,0.01,-0.11,0.03
3.671,-0.17,-0.01,0.02,0.01,-0.11,0.03
3.674,-0.17,-0.01,0.02,0.02,-0.11,0.02
3.675,-0.17,-0.01,0.02,0.02,-0.11,0.02
3.675,-0.14,-0.01,0.03,0.02,-0.11,0.02
3.679,-0.14,-0.01,0.03,0.03,-0.11,0.02
3.684,-0.13,-0.01,0.02,0.03,-0.11,0.02
3.684,-0.13,-0.01,0.02,0.04,-0.10,0.02
3.7,-0.13,-0.01,0.02,0.04,-0.10,0.02
3.7,-0.17,0.01,-0.01,0.04,-0.10,0.02
3.7,-0.17,0.01,-0.01,0.04,-0.09,0.02
3.701,-0.17,0.01,-0.01,0.05,-0.09,0.02
3.701,-0.12,0.01,-0.01,0.05,-0.09,0.02
3.701,-0.12,0.01,-0.01,0.05,-0.08,0.01
3.701,-0.14,0.01,-0.06,0.05,-0.08,0.01
3.701,-0.14,0.01,-0.06,0.05,-0.08,0.01
3.701,-0.10,0.02,-0.08,0.05,-0.08,0.01
3.702,-0.10,0.02,-0.08,0.05,-0.07,0.01
3.705,-0.10,0.02,-0.08,0.06,-0.06,0.01
3.706,-0.10,0.02,-0.08,0.06,-0.05,0.00
3.706,-0.07,0.00,-0.09,0.06,-0.05,0.00
3.706,-0.07,0.00,-0.09,0.06,-0.04,0.00
3.706,-0.06,0.02,-0.11,0.06,-0.04,0.00
3.706,-0.06,0.02,-0.11,0.06,-0.04,0.00
3.706,-0.05,0.00,-0.12,0.06,-0.04,0.00
3.707,-0.05,0.00,-0.12,0.05,-0.03,0.00
3.71,-0.05,0.00,-0.12,0.05,-0.02,0.00
3.71,-0.03,0.00,-0.14,0.05,-0.02,0.00
3.714,-0.03,0.00,-0.14,0.05,-0.01,-0.00
3.716,-0.03,0.00,-0.14,0.05,0.00,-0.00
3.716,0.01,-0.05,-0.12,0.05,0.00,-0.00
3.719,0.01,-0.05,-0.12,0.05,0.01,-0.00
3.72,-0.01,-0.04,-0.14,0.05,0.01,-0.00
3.72,-0.01,-0.04,-0.14,0.05,0.02,-0.00
3.723,0.01,-0.09,-0.13,0.05,0.02,-0.00
3.723,0.01,-0.09,-0.13,0.05,0.03,-0.00
3.726,0.01,-0.09,-0.13,0.05,0.04,-0.01
3.726,0.01,-0.09,-0.13,0.04,0.05,-0.01
3.726,0.01,-0.07,-0.13,0.04,0.05,-0.01
3.732,0.03,-0.06,-0.10,0.04,0.05,-0.01
3.732,0.03,-0.06,-0.10,0.04,0.06,-0.01
3.733,0.03,-0.06,-0.10,0.04,0.06,-0.01
3.734,0.05,-0.08,-0.11,0.04,0.06,-0.01
3.734,0.05,-0.08,-0.11,0.04,0.06,-0.01
3.739,0.05,-0.08,-0.07,0.04,0.06,-0.01
3.739,0.05,-0.08,-0.07,0.04,0.07,-0.01
3.74,0.05,-0.08,-0.07,0.04,0.07,-0.01
3.742,0.04,-0.05,-0.08,0.04,0.07,-0.01
3.742,0.04,-0.05,-0.08,0.04,0.08,-0.02
3.744,0.04,-0.05,-0.08,0.04,0.08,-0.02
3.748,0.08,-0.02,-0.06,0.04,0.08,-0.02
3.75,0.08,-0.02,-0.06,0.04,0.09,-0.02
3.75,0.08,-0.02,-0.06,0.04,0.09,-0.02
3.752,0.04,0.01,-0.02,0.04,0.09,-0.02
3.752,0.04,0.01,-0.02,0.04,0.09,-0.02
3.756,0.04,0.01,-0.02,0.04,0.09,-0.02
3.756,0.07,0.04,-0.01,0.04,0.09,-0.02
3.756,0.07,0.04,-0.01,0.04,0.09,-0.02
3.76,0.07,0.04,-0.01,0.04,0.09,-0.02
3.76,0.06,0.09,0.01,0.04,0.09,-0.02
3.765,0.06,0.09,0.01,0.04,0.09,-0.02
3.766,0.08,0.11,0.04,0.04,0.09,-0.02
3.766,0.08,0.11,0.04,0.04,0.09,-0.02
3.768,0.06,0.12,0.04,0.04,0.09,-0.02
3.768,0.06,0.12,0.04,0.05,0.09,-0.02
3.769,0.06,0.12,0.04,0.05,0.09,-0.02
3.772,0.07,0.12,0.07,0.05,0.09,-0.02
3.773,0.07,0.12,0.07,0.05,0.09,-0.02
3.776,0.08,0.11,0.09,0.05,0.09,-0.02
3.776,0.08,0.11,0.09,0.05,0.09,-0.02
3.776,0.08,0.11,0.09,0.06,0.09,-0.02
3.78,0.08,0.11,0.09,0.06,0.09,-0.02
3.781,0.08,0.07,0.12,0.06,0.09,-0.02
3.784,0.08,0.07,0.12,0.07,0.09,-0.02
3.784,0.08,0.07,0.12,0.07,0.09,-0.02
3.788,0.08,0.07,0.12,0.07,0.09,-0.02
3.789,0.11,0.03,0.12,0.07,0.09,-0.02
3.789,0.11,0.03,0.12,0.07,0.08,-0.02
3.789,0.09,-0.00,0.16,0.07,0.08,-0.02
3.792,0.12,-0.04,0.14,0.07,0.08,-0.02
3.792,0.12,-0.04,0.14,0.08,0.08,-0.02
3.796,0.12,-0.04,0.14,0.08,0.08,-0.02
3.796,0.12,-0.04,0.14,0.08,0.08,-0.02
3.798,0.13,-0.05,0.14,0.08,0.08,-0.02
3.799,0.13,-0.05,0.14,0.08,0.07,-0.02
3.8,0.13,-0.06,0.10,0.08,0.07,-0.02
3.806,0.12,-0.06,0.09,0.08,0.07,-0.02
3.806,0.12,-0.06,0.09,0.08,0.07,-0.02
3.806,0.12,-0.06,0.09,0.08,0.07,-0.02
3.809,0.12,-0.03,0.04,0.08,0.07,-0.02
3.809,0.12,-0.03,0.04,0.08,0.07,-0.02
3.809,0.12,-0.03,0.04,0.08,0.07,-0.02
3.812,0.13,-0.02,0.02,0.08,0.07,-0.02
3.812,0.13,-0.02,0.02,0.08,0.07,-0.02
3.816,0.13,-0.02,0.02,0.07,0.07,-0.02
3.816,0.15,-0.00,-0.00,0.07,0.07,-0.02
3.817,0.15,-0.00,-0.00,0.07,0.07,-0.02
3.82,0.15,-0.00,-0.00,0.06,0.06,-0.02
3.821,0.16,0.06,-0.04,0.06,0.06,-0.02
3.824,0.19,0.09,-0.06,0.06,0.06,-0.02
3.824,0.19,0.09,-0.06,0.06,0.07,-0.02
3.825,0.19,0.09,-0.06,0.05,0.06,-0.02
3.829,0.19,0.09,-0.06,0.05,0.06,-0.02
3.829,0.19,0.09,-0.06,0.04,0.06,-0.02
3.829,0.18,0.13,-0.07,0.04,0.06,-0.02
3.832,0.18,0.13,-0.07,0.04,0.06,-0.02
3.833,0.19,0.12,-0.06,0.04,0.06,-0.02
3.836,0.19,0.12,-0.06,0.03,0.06,-0.02
3.851,0.18,0.14,-0.06,0.03,0.06,-0.02
3.851,0.18,0.14,-0.06,0.03,0.06,-0.02
3.851,0.18,0.16,-0.03,0.03,0.06,-0.02
3.852,0.18,0.16,-0.03,0.03,0.07,-0.02
3.852,0.18,0.16,-0.03,0.03,0.07,-0.02
3.852,0.18,0.13,-0.02,0.03,0.07,-0.02
3.852,0.18,0.13,-0.02,0.02,0.07,-0.02
3.852,0.18,0.13,-0.02,0.02,0.07,-0.02
3.852,0.18,0.13,-0.02,0.02,0.07,-0.01
3.852,0.16,0.09,0.02,0.02,0.07,-0.01
3.852,0.15,0.08,0.05,0.02,0.07,-0.01
3.853,0.15,0.08,0.05,0.01,0.07,-0.01
3.856,0.15,0.05,0.07,0.01,0.07,-0.01
3.857,0.15,0.05,0.07,0.02,0.07,-0.01
3.857,0.15,0.05,0.07,0.02,0.08,-0.01
3.86,0.15,0.05,0.07,0.02,0.08,-0.01
3.86,0.09,0.03,0.11,0.02,0.08,-0.01
3.864,0.09,0.03,0.11,0.02,0.08,-0.00
3.864,0.11,-0.06,0.12,0.02,0.08,-0.00
3.864,0.11,-0.06,0.12,0.02,0.08,-0.00
3.868,0.12,-0.09,0.13,0.02,0.08,-0.00
3.869,0.12,-0.09,0.13,0.02,0.08,-0.00
3.869,0.12,-0.09,0.13,0.02,0.08,0.00
3.872,0.10,-0.14,0.16,0.02,0.08,0.00
3.872,0.10,-0.14,0.16,0.02,0.08,0.00
3.876,0.10,-0.14,0.16,0.02,0.07,0.00
3.876,0.10,-0.15,0.16,0.02,0.07,0.00
3.876,0.10,-0.15,0.16,0.02,0.07,0.00
3.881,0.07,-0.15,0.14,0.02,0.07,0.00
3.882,0.07,-0.15,0.14,0.03,0.07,0.01
3.884,0.07,-0.15,0.13,0.03,0.07,0.01
3.884,0.07,-0.15,0.13,0.03,0.07,0.01
3.884,0.07,-0.15,0.13,0.03,0.06,0.01
3.889,0.06,-0.14,0.11,0.03,0.06,0.01
3.889,0.06,-0.14,0.11,0.03,0.06,0.01
3.889,0.06,-0.14,0.11,0.03,0.06,0.01
3.892,0.03,-0.12,0.09,0.03,0.06,0.01
3.892,0.03,-0.12,0.09,0.03,0.05,0.01
3.896,0.03,-0.12,0.09,0.03,0.05,0.01
3.896,0.02,-0.10,0.06,0.03,0.05,0.01
3.896,0.02,-0.10,0.06,0.03,0.04,0.01
3.9,0.02,-0.10,0.06,0.02,0.04,0.01
3.901,-0.00,-0.05,0.04,0.02,0.04,0.01
3.904,-0.02,0.02,0.03,0.02,0.04,0.01
3.904,-0.02,0.02,0.03,0.02,0.04,0.01
3.904,-0.02,0.02,0.03,0.02,0.03,0.01
3.908,-0.02,0.02,0.03,0.01,0.02,0.02
3.909,-0.04,0.04,0.01,0.01,0.02,0.02
3.909,-0.04,0.04,0.01,0.01,0.01,0.02
3.912,-0.09,0.09,-0.02,0.01,0.01,0.02
3.912,-0.09,0.09,-0.02,0.01,0.01,0.02
3.916,-0.09,0.09,-0.02,0.00,-0.00,0.02
3.916,-0.12,0.13,-0.01,0.00,-0.00,0.02
3.919,-0.12,0.13,-0.01,0.00,-0.01,0.02
3.92,-0.12,0.13,-0.01,-0.01,-0.02,0.02
3.92,-0.15,0.14,-0.02,-0.01,-0.02,0.02
3.925,-0.15,0.14,-0.02,-0.01,-0.02,0.02
3.925,-0.15,0.14,-0.02,-0.01,-0.03,0.02
3.925,-0.15,0.14,-0.02,-0.01,-0.04,0.03
3.929,-0.15,0.14,-0.02,-0.01,-0.05,0.03
3.929,-0.19,0.15,0.00,-0.01,-0.05,0.03
3.929,-0.19,0.15,0.00,-0.01,-0.06,0.03
3.932,-0.23,0.14,0.00,-0.01,-0.06,0.03
3.932,-0.23,0.14,0.00,-0.01,-0.07,0.03
3.936,-0.23,0.13,0.03,-0.01,-0.07,0.03
3.937,-0.23,0.13,0.03,-0.01,-0.08,0.03
3.937,-0.23,0.13,0.03,-0.02,-0.10,0.03
3.94,-0.23,0.13,0.03,-0.01,-0.11,0.03
3.94,-0.27,0.11,0.03,-0.01,-0.11,0.03
3.942,-0.27,0.11,0.03,-0.02,-0.12,0.03
3.943,-0.26,0.07,0.06,-0.02,-0.12,0.03
3.944,-0.26,0.07,0.06,-0.01,-0.13,0.03
3.948,-0.30,0.05,0.06,-0.01,-0.13,0.03
3.949,-0.30,0.05,0.06,-0.01,-0.14,0.03
3.952,-0.30,0.05,0.06,-0.01,-0.15,0.03
3.953,-0.33,0.03,0.08,-0.01,-0.15,0.03
3.953,-0.33,0.03,0.08,-0.01,-0.16,0.03
3.957,-0.33,0.03,0.08,-0.01,-0.17,0.03
3.957,-0.35,0.01,0.07,-0.01,-0.17,0.03
3.957,-0.35,0.01,0.07,-0.01,-0.18,0.03
3.961,-0.35,0.01,0.07,-0.01,-0.18,0.02
3.961,-0.31,0.01,0.08,-0.01,-0.18,0.02
3.965,-0.35,0.02,0.09,-0.01,-0.18,0.02
3.966,-0.35,0.02,0.09,-0.01,-0.19,0.02
3.966,-0.35,0.02,0.09,-0.01,-0.20,0.02
3.969,-0.34,0.02,0.08,-0.01,-0.20,0.02
3.969,-0.34,0.02,0.08,-0.00,-0.20,0.02
3.969,-0.34,0.02,0.08,0.00,-0.21,0.02
3.972,-0.31,0.01,0.09,0.00,-0.21,0.02
3.973,-0.31,0.01,0.09,0.00,-0.21,0.02
3.976,-0.31,0.01,0.09,0.00,-0.21,0.01
3.977,-0.31,0.01,0.09,0.00,-0.21,0.01
3.977,-0.31,0.00,0.08,0.00,-0.21,0.01
3.98,-0.31,0.00,0.08,0.00,-0.21,0.01
3.98,-0.27,0.01,0.05,0.00,-0.21,0.01
3.984,-0.25,-0.02,0.03,0.00,-0.21,0.01
3.985,-0.25,-0.02,0.03,0.00,-0.21,0.01
3.985,-0.25,-0.02,0.03,0.00,-0.20,0.00
3.989,-0.24,-0.02,0.02,0.00,-0.20,0.00
3.989,-0.24,-0.02,0.02,0.00,-0.19,0.00
4.011,-0.24,-0.02,0.02,0.00,-0.19,-0.00
4.012,-0.21,-0.02,-0.01,0.00,-0.19,-0.00
4.012,-0.21,-0.02,-0.01,-0.00,-0.18,-0.00
4.012,-0.21,-0.02,-0.01,-0.01,-0.17,-0.00
4.013,-0.15,-0.06,-0.04,-0.01,-0.17,-0.00
4.013,-0.15,-0.06,-0.04,-0.01,-0.16,-0.01
4.013,-0.14,-0.06,-0.05,-0.01,-0.16,-0.01
4.013,-0.14,-0.06,-0.05,-0.01,-0.15,-0.01
4.014,-0.15,-0.06,-0.07,-0.01,-0.15,-0.01
4.014,-0.15,-0.06,-0.07,-0.01,-0.13,-0.01
4.014,-0.15,-0.06,-0.07,-0.02,-0.12,-0.01
4.015,-0.09,-0.05,-0.09,-0.02,-0.12,-0.01
4.015,-0.09,-0.05,-0.09,-0.02,-0.11,-0.01
4.015,-0.09,-0.05,-0.09,-0.02,-0.09,-0.02
4.016,-0.08,-0.04,-0.11,-0.02,-0.09,-0.02
4.016,-0.08,-0.04,-0.11,-0.03,-0.07,-0.02
4.016,-0.08,-0.04,-0.11,-0.03,-0.06,-0.02
4.017,-0.04,-0.05,-0.10,-0.03,-0.06,-0.02
4.017,-0.04,-0.05,-0.10,-0.04,-0.05,-0.02
4.02,-0.04,-0.05,-0.10,-0.04,-0.03,-0.02
4.02,-0.03,-0.07,-0.11,-0.04,-0.03,-0.02
4.024,0.00,-0.06,-0.10,-0.04,-0.03,-0.02
4.024,0.00,-0.06,-0.10,-0.04,-0.02,-0.02
4.025,0.00,-0.06,-0.10,-0.05,-0.00,-0.02
4.028,0.02,-0.02,-0.07,-0.05,-0.00,-0.02
4.029,0.02,-0.02,-0.07,-0.05,0.01,-0.02
4.029,0.02,-0.02,-0.07,-0.05,0.03,-0.02
4.034,0.03,-0.03,-0.07,-0.05,0.03,-0.02
4.035,0.03,-0.03,-0.07,-0.06,0.04,-0.03
4.036,0.03,-0.03,-0.07,-0.05,0.05,-0.03
4.036,0.03,-0.03,-0.07,-0.05,0.06,-0.03
4.036,0.05,-0.01,-0.02,-0.05,0.06,-0.03
4.04,0.05,-0.01,0.00,-0.05,0.06,-0.03
4.04,0.05,-0.01,0.00,-0.05,0.07,-0.03
4.044,0.04,0.02,0.03,-0.05,0.07,-0.03
4.044,0.04,0.02,0.03,-0.05,0.08,-0.03
4.044,0.04,0.02,0.03,-0.05,0.09,-0.03
4.049,0.05,0.03,0.07,-0.05,0.09,-0.03
4.05,0.05,0.03,0.07,-0.05,0.10,-0.03
4.05,0.05,0.03,0.07,-0.04,0.10,-0.03
4.051,0.05,0.02,0.08,-0.04,0.10,-0.03
4.052,0.05,0.02,0.08,-0.04,0.11,-0.03
4.055,0.02,0.05,0.11,-0.04,0.11,-0.03
4.056,0.02,0.05,0.11,-0.04,0.11,-0.03
4.056,0.02,0.05,0.11,-0.03,0.12,-0.03
4.059,0.04,0.02,0.11,-0.03,0.12,-0.03
4.059,0.04,0.02,0.11,-0.03,0.12,-0.02
4.064,0.06,0.01,0.13,-0.03,0.12,-0.02
4.064,0.06,0.01,0.13,-0.02,0.12,-0.02
4.064,0.06,0.01,0.13,-0.02,0.12,-0.02
4.068,0.06,0.01,0.13,-0.01,0.12,-0.02
4.069,0.06,0.01,0.14,-0.01,0.12,-0.02
4.069,0.06,0.01,0.14,-0.01,0.11,-0.02
4.072,0.03,-0.00,0.13,-0.01,0.11,-0.02
4.072,0.03,-0.00,0.13,-0.01,0.11,-0.02
4.076,0.03,-0.00,0.13,-0.00,0.10,-0.02
4.076,0.06,0.02,0.12,-0.00,0.10,-0.02
4.076,0.06,0.02,0.12,0.00,0.10,-0.02
4.08,0.06,0.02,0.12,0.00,0.09,-0.02
4.08,0.10,-0.02,0.11,0.00,0.09,-0.02
4.084,0.09,-0.03,0.11,0.00,0.09,-0.02
4.086,0.09,-0.03,0.11,0.01,0.08,-0.02
4.086,0.09,-0.03,0.11,0.01,0.07,-0.02
4.089,0.09,-0.03,0.11,0.01,0.06,-0.02
4.089,0.11,-0.03,0.09,0.01,0.06,-0.02
4.092,0.12,-0.03,0.07,0.01,0.06,-0.02
4.095,0.12,-0.03,0.07,0.01,0.06,-0.02
4.095,0.12,-0.03,0.07,0.01,0.05,-0.02
4.095,0.13,-0.02,0.01,0.01,0.05,-0.02
4.096,0.13,-0.02,0.01,0.02,0.04,-0.02
4.097,0.13,-0.02,0.01,0.01,0.03,-0.02
4.1,0.16,-0.03,-0.01,0.01,0.03,-0.02
4.1,0.16,-0.03,-0.01,0.01,0.02,-0.02
4.104,0.16,-0.03,-0.01,0.01,0.01,-0.02
4.104,0.21,-0.01,-0.04,0.01,0.01,-0.02
4.104,0.21,-0.01,-0.04,0.01,0.00,-0.02
4.108,0.19,-0.01,-0.10,0.01,0.00,-0.02
4.109,0.19,-0.01,-0.10,0.00,-0.00,-0.02
4.109,0.19,-0.01,-0.10,-0.00,-0.01,-0.02
4.112,0.20,0.03,-0.10,-0.00,-0.01,-0.02
4.112,0.20,0.03,-0.10,-0.01,-0.02,-0.02
4.116,0.20,0.03,-0.10,-0.01,-0.02,-0.02
4.117,0.23,0.04,-0.14,-0.01,-0.02,-0.02
4.117,0.23,0.04,-0.14,-0.01,-0.03,-0.02
4.12,0.24,0.06,-0.15,-0.01,-0.03,-0.02
4.12,0.24,0.06,-0.15,-0.02,-0.03,-0.02
4.124,0.24,0.06,-0.15,-0.02,-0.04,-0.02
4.125,0.27,0.05,-0.13,-0.02,-0.04,-0.02
4.125,0.27,0.05,-0.13,-0.02,-0.04,-0.02
4.129,0.25,0.05,-0.10,-0.02,-0.04,-0.02
4.129,0.25,0.05,-0.10,-0.03,-0.04,-0.02
4.129,0.25,0.05,-0.10,-0.03,-0.05,-0.02
4.133,0.23,0.03,-0.10,-0.03,-0.05,-0.02
4.134,0.23,0.03,-0.10,-0.03,-0.05,-0.02
4.136,0.23,0.03,-0.10,-0.03,-0.05,-0.02
4.136,0.21,0.04,-0.06,-0.03,-0.05,-0.02
4.137,0.21,0.04,-0.06,-0.04,-0.05,-0.01
4.14,0.21,0.04,-0.06,-0.03,-0.05,-0.01
4.14,0.20,0.01,-0.04,-0.03,-0.05,-0.01
4.142,0.18,-0.02,0.01,-0.03,-0.05,-0.01
4.163,0.18,-0.02,0.01,-0.03,-0.05,-0.01
4.163,0.18,-0.02,0.01,-0.03,-0.05,-0.01
4.163,0.17,-0.03,0.05,-0.03,-0.05,-0.01
4.164,0.17,-0.03,0.05,-0.03,-0.05,-0.01
4.164,0.17,-0.03,0.05,-0.02,-0.05,-0.01
4.164,0.17,-0.06,0.08,-0.02,-0.05,-0.01
4.165,0.17,-0.06,0.08,-0.02,-0.05,-0.00
4.165,0.17,-0.06,0.08,-0.01,-0.05,-0.00
4.165,0.14,-0.05,0.09,-0.01,-0.05,-0.00
4.165,0.14,-0.05,0.09,-0.01,-0.04,0.00
4.166,0.14,-0.04,0.11,-0.01,-0.04,0.00
4.166,0.14,-0.04,0.11,-0.01,-0.04,0.00
4.166,0.14,-0.04,0.13,-0.01,-0.04,0.00
4.167,0.14,-0.04,0.13,0.00,-0.04,0.00
4.167,0.14,-0.04,0.13,0.01,-0.04,0.00
4.167,0.14,-0.04,0.13,0.01,-0.04,0.00
4.168,0.14,-0.04,0.13,0.01,-0.04,0.00
4.168,0.15,-0.04,0.10,0.01,-0.04,0.00
4.171,0.13,-0.01,0.10,0.01,-0.04,0.00
4.172,0.13,-0.01,0.10,0.02,-0.03,0.00
4.174,0.13,-0.01,0.10,0.02,-0.03,0.00
4.174,0.14,0.01,0.07,0.02,-0.03,0.00
4.176,0.14,0.01,0.07,0.02,-0.03,0.00
4.179,0.14,0.01,0.07,0.03,-0.03,0.01
4.179,0.13,0.02,0.04,0.03,-0.03,0.01
4.185,0.13,0.04,0.01,0.03,-0.03,0.01
4.186,0.13,0.04,0.01,0.02,-0.03,0.00
4.186,0.13,0.04,0.01,0.03,-0.02,0.00
4.188,0.13,0.04,0.01,0.03,-0.03,0.00
4.188,0.13,0.04,0.01,0.03,-0.02,0.00
4.189,0.10,0.04,-0.01,0.03,-0.02,0.00
4.191,0.13,0.04,-0.05,0.03,-0.02,0.00
4.192,0.13,0.04,-0.05,0.03,-0.02,0.00
4.196,0.13,0.04,-0.05,0.03,-0.02,0.00
4.196,0.09,0.04,-0.05,0.03,-0.02,0.00
4.196,0.09,0.04,-0.05,0.03,-0.02,0.00
4.2,0.09,0.04,-0.05,0.03,-0.02,0.00
4.201,0.09,0.04,-0.07,0.03,-0.02,0.00
4.204,0.09,0.04,-0.07,0.02,-0.01,0.00
4.204,0.08,0.02,-0.07,0.02,-0.01,0.00
4.204,0.08,0.02,-0.07,0.02,-0.01,0.00
4.21,0.08,0.02,-0.07,0.02,-0.01,0.00
4.21,0.07,0.00,-0.06,0.02,-0.01,0.00
4.21,0.07,0.00,-0.06,0.02,-0.01,0.00
4.212,0.04,-0.00,-0.05,0.02,-0.01,0.00
4.212,0.04,-0.00,-0.05,0.01,-0.01,0.01
4.217,0.04,0.01,-0.07,0.01,-0.01,0.01
4.218,0.04,0.01,-0.07,0.01,-0.01,0.01
4.218,0.04,0.01,-0.07,0.02,-0.00,0.00
4.22,0.05,-0.00,-0.06,0.02,-0.00,0.00
4.22,0.05,-0.00,-0.06,0.02,-0.01,0.00
4.224,0.03,-0.00,-0.04,0.02,-0.01,0.00
4.224,0.03,-0.00,-0.04,0.01,-0.00,0.00
4.224,0.03,-0.00,-0.04,0.01,0.00,0.00
4.229,0.03,-0.00,-0.04,0.01,-0.00,0.00
4.229,0.04,0.02,-0.04,0.01,-0.00,0.00
4.229,0.04,0.02,-0.04,0.01,-0.00,0.00
4.232,0.01,0.01,-0.03,0.01,-0.00,0.00
4.232,0.01,0.01,-0.03,0.01,0.00,0.01
4.236,0.01,0.01,-0.03,0.01,0.00,0.01
4.236,-0.02,0.01,-0.02,0.01,0.00,0.01
4.236,-0.02,0.01,-0.02,0.01,0.00,0.01
4.24,-0.02,0.01,-0.02,0.01,0.00,0.01
4.24,-0.03,-0.01,0.01,0.01,0.00,0.01
4.244,-0.03,-0.00,0.04,0.01,0.00,0.01
4.248,-0.06,-0.00,0.05,0.01,0.00,0.01
4.248,-0.06,-0.00,0.05,0.01,-0.00,0.01
4.249,-0.06,-0.00,0.05,0.01,0.00,0.01
4.249,-0.06,-0.00,0.05,0.02,-0.00,0.01
4.249,-0.06,-0.00,0.05,0.02,-0.00,0.01
4.252,-0.05,-0.00,0.05,0.02,-0.00,0.01
4.253,-0.05,-0.00,0.05,0.02,-0.00,0.01
4.256,-0.05,-0.00,0.05,0.02,-0.00,0.01
4.257,-0.05,-0.01,0.07,0.02,-0.00,0.01
4.257,-0.05,-0.01,0.07,0.03,-0.01,0.00
4.26,-0.05,-0.01,0.07,0.03,-0.01,0.00
4.26,-0.09,-0.02,0.08,0.03,-0.01,0.00
4.264,-0.08,-0.01,0.08,0.03,-0.01,0.00
4.264,-0.08,-0.01,0.08,0.03,-0.01,0.00
4.265,-0.08,-0.01,0.08,0.03,-0.01,0.00
4.271,-0.08,-0.01,0.08,0.04,-0.01,0.00
4.272,-0.08,-0.01,0.08,0.04,-0.02,-0.00
4.272,-0.08,0.01,0.07,0.04,-0.02,-0.00
4.272,-0.12,0.00,0.06,0.04,-0.02,-0.00
4.273,-0.12,0.00,0.06,0.04,-0.02,-0.00
4.276,-0.12,0.00,0.06,0.04,-0.02,-0.00
4.277,-0.11,-0.01,0.03,0.04,-0.02,-0.00
4.277,-0.11,-0.01,0.03,0.04,-0.02,-0.00
4.28,-0.11,-0.01,0.03,0.04,-0.02,-0.01
4.281,-0.10,0.03,0.04,0.04,-0.02,-0.01
4.284,-0.10,0.03,0.04,0.04,-0.02,-0.01
4.285,-0.10,0.03,0.04,0.04,-0.02,-0.01
4.285,-0.09,0.02,0.01,0.04,-0.02,-0.01
4.289,-0.10,-0.01,-0.02,0.04,-0.02,-0.01
4.289,-0.10,-0.01,-0.02,0.03,-0.02,-0.01
4.289,-0.10,-0.01,-0.02,0.03,-0.02,-0.01
4.292,-0.07,0.00,-0.02,0.03,-0.02,-0.01
4.292,-0.07,0.00,-0.02,0.03,-0.02,-0.01
4.296,-0.07,0.00,-0.02,0.03,-0.01,-0.01
4.296,-0.07,-0.02,-0.03,0.03,-0.01,-0.01
4.312,-0.07,-0.02,-0.03,0.02,-0.01,-0.01
4.312,-0.06,-0.00,-0.06,0.02,-0.01,-0.01
4.312,-0.06,-0.00,-0.06,0.02,-0.01,-0.01
4.312,-0.06,-0.00,-0.06,0.02,-0.01,-0.01
4.313,-0.06,-0.00,-0.06,0.02,-0.00,-0.01
4.313,-0.04,-0.01,-0.07,0.02,-0.00,-0.01
4.313,-0.03,0.01,-0.08,0.02,-0.00,-0.01
4.313,-0.03,0.01,-0.08,0.01,-0.00,-0.01
4.313,-0.03,0.01,-0.08,0.01,0.00,-0.01
4.313,-0.02,-0.03,-0.08,0.01,0.00,-0.01
4.314,-0.02,-0.03,-0.08,0.00,0.01,-0.01
4.316,-0.02,-0.03,-0.08,-0.00,0.01,-0.01
4.316,-0.05,0.00,-0.06,-0.00,0.01,-0.01
4.317,-0.05,0.00,-0.06,-0.01,0.02,-0.01
4.321,-0.05,0.00,-0.06,-0.01,0.02,-0.01
4.321,-0.04,-0.04,-0.07,-0.01,0.02,-0.01
4.324,-0.04,-0.04,-0.07,-0.01,0.02,-0.01
4.324,-0.05,-0.01,-0.06,-0.01,0.02,-0.01
4.324,-0.05,-0.01,-0.06,-0.01,0.03,-0.01
4.328,-0.05,-0.01,-0.06,-0.01,0.03,-0.01
4.329,-0.07,-0.03,-0.02,-0.01,0.03,-0.01
4.329,-0.07,-0.03,-0.02,-0.01,0.03,-0.01
4.331,-0.04,-0.03,0.01,-0.01,0.03,-0.01
4.332,-0.04,-0.03,0.01,-0.01,0.03,-0.01
4.336,-0.04,-0.03,0.01,-0.01,0.03,-0.01
4.336,-0.04,-0.03,0.01,-0.01,0.04,-0.01
4.337,-0.04,-0.01,0.01,-0.01,0.04,-0.01
4.34,-0.03,0.01,0.04,-0.01,0.04,-0.01
4.34,-0.03,0.01,0.04,-0.01,0.04,-0.01
4.342,-0.05,0.03,0.07,-0.01,0.04,-0.01
4.342,-0.05,0.03,0.07,-0.01,0.04,-0.01
4.344,-0.05,0.03,0.07,-0.01,0.04,-0.01
4.347,-0.05,0.03,0.07,-0.01,0.04,-0.01
4.347,-0.02,0.05,0.10,-0.01,0.04,-0.01
4.348,-0.02,0.05,0.10,-0.00,0.04,-0.01
4.353,-0.06,0.06,0.12,-0.00,0.04,-0.01
4.353,-0.06,0.06,0.12,0.00,0.04,-0.01
4.356,-0.03,0.06,0.13,0.00,0.04,-0.01
4.356,-0.03,0.06,0.13,0.01,0.04,-0.01
4.356,-0.03,0.06,0.13,0.01,0.04,-0.01
4.36,-0.03,0.06,0.13,0.01,0.04,-0.01
4.36,-0.03,0.03,0.14,0.01,0.04,-0.01
4.364,-0.03,0.03,0.14,0.02,0.03,-0.01
4.364,-0.02,-0.00,0.13,0.02,0.03,-0.01
4.364,-0.02,-0.00,0.13,0.02,0.03,-0.01
4.368,-0.02,-0.00,0.13,0.02,0.03,-0.01
4.369,-0.02,-0.00,0.14,0.02,0.03,-0.01
4.369,-0.02,-0.00,0.14,0.03,0.03,-0.01
4.371,0.01,-0.04,0.14,0.03,0.03,-0.01
4.372,0.01,-0.04,0.14,0.03,0.03,-0.01
4.375,0.01,-0.02,0.09,0.03,0.03,-0.01
4.376,0.01,-0.02,0.09,0.03,0.03,-0.01
4.377,0.01,-0.02,0.09,0.03,0.03,-0.01
4.38,0.01,-0.02,0.09,0.03,0.03,-0.01
4.38,0.03,-0.02,0.05,0.03,0.03,-0.01
4.386,0.04,-0.06,0.01,0.03,0.03,-0.01
4.386,0.04,-0.06,0.01,0.02,0.03,-0.01
4.386,0.04,-0.06,0.01,0.02,0.03,-0.01
4.388,0.01,-0.03,-0.03,0.02,0.03,-0.01
4.39,0.01,-0.03,-0.03,0.02,0.02,-0.01
4.39,0.01,-0.03,-0.03,0.02,0.02,-0.01
4.392,0.04,-0.07,-0.07,0.02,0.02,-0.01
4.392,0.04,-0.07,-0.07,0.01,0.02,-0.01
4.396,0.04,-0.07,-0.07,0.00,0.02,-0.01
4.396,0.04,-0.05,-0.11,0.00,0.02,-0.01
4.396,0.04,-0.05,-0.11,-0.00,0.02,-0.01
4.4,-0.00,-0.04,-0.12,-0.00,0.02,-0.01
4.4,-0.00,-0.04,-0.12,-0.01,0.01,-0.00
4.405,-0.01,-0.02,-0.13,-0.01,0.01,-0.00
4.406,-0.01,-0.02,-0.13,-0.01,0.01,-0.00
4.406,-0.01,-0.02,-0.13,-0.02,0.00,-0.00
4.409,-0.02,-0.00,-0.17,-0.02,0.00,-0.00
4.409,-0.02,-0.00,-0.17,-0.02,-0.01,0.00
4.409,-0.02,-0.00,-0.17,-0.03,-0.01,0.00
4.413,-0.06,-0.02,-0.13,-0.03,-0.01,0.00
4.413,-0.06,-0.02,-0.13,-0.03,-0.02,0.00
4.416,-0.06,-0.02,-0.13,-0.03,-0.02,0.00
4.417,-0.05,-0.02,-0.10,-0.03,-0.02,0.00
4.417,-0.05,-0.02,-0.10,-0.04,-0.03,0.00
4.422,-0.05,-0.02,-0.10,-0.04,-0.04,0.00
4.423,-0.04,0.04,-0.08,-0.04,-0.04,0.00
4.425,-0.06,0.01,-0.05,-0.04,-0.04,0.00
4.425,-0.06,0.01,-0.05,-0.04,-0.05,0.00
4.425,-0.06,0.01,-0.05,-0.04,-0.06,0.00
4.43,-0.08,0.02,-0.02,-0.04,-0.06,0.00
4.43,-0.08,0.02,-0.02,-0.04,-0.07,0.00
4.43,-0.08,0.02,-0.02,-0.04,-0.08,0.00
4.432,-0.08,0.04,0.01,-0.04,-0.08,0.00
4.432,-0.08,0.04,0.01,-0.04,-0.08,-0.00
4.436,-0.08,0.04,0.03,-0.04,-0.08,-0.00
4.437,-0.08,0.04,0.03,-0.04,-0.09,-0.00
4.438,-0.08,0.04,0.03,-0.04,-0.10,-0.00
4.44,-0.12,0.04,0.07,-0.04,-0.10,-0.00
4.44,-0.12,0.04,0.07,-0.03,-0.11,-0.00
4.444,-0.12,0.04,0.07,-0.03,-0.11,-0.00
4.444,-0.12,0.05,0.09,-0.03,-0.11,-0.00
4.445,-0.12,0.05,0.09,-0.02,-0.12,-0.00
4.448,-0.12,0.05,0.09,-0.02,-0.12,-0.00
4.448,-0.15,0.03,0.10,-0.02,-0.12,-0.00
4.449,-0.15,0.03,0.10,-0.01,-0.12,-0.00
4.471,-0.14,0.07,0.11,-0.01,-0.12,-0.00
4.472,-0.14,0.07,0.11,-0.01,-0.12,-0.00
4.472,-0.14,0.07,0.11,-0.00,-0.13,-0.00
4.472,-0.14,0.07,0.11,0.00,-0.12,-0.00
4.472,-0.14,0.02,0.14,0.00,-0.12,-0.00
4.473,-0.14,0.02,0.14,0.01,-0.12,-0.00
4.473,-0.10,0.03,0.13,0.01,-0.12,-0.00
4.473,-0.09,-0.03,0.14,0.01,-0.12,-0.00
4.474,-0.09,-0.03,0.14,0.01,-0.12,-0.00
4.474,-0.09,-0.03,0.14,0.02,-0.11,-0.00
4.474,-0.09,-0.03,0.14,0.02,-0.11,-0.01
4.475,-0.09,-0.03,0.14,0.03,-0.10,-0.01
4.475,-0.03,-0.07,0.13,0.03,-0.10,-0.01
4.475,-0.00,-0.08,0.08,0.03,-0.10,-0.01
4.476,-0.00,-0.08,0.08,0.03,-0.09,-0.01
4.476,-0.00,-0.08,0.08,0.03,-0.08,-0.01
4.476,0.06,-0.10,0.06,0.03,-0.08,-0.01
4.476,0.06,-0.10,0.06,0.03,-0.06,-0.01
4.48,0.06,-0.10,0.06,0.03,-0.05,-0.02
4.48,0.11,-0.10,0.02,0.03,-0.05,-0.02
4.488,0.11,-0.10,0.02,0.03,-0.04,-0.02
4.489,0.13,-0.09,-0.00,0.03,-0.04,-0.02
4.489,0.13,-0.09,-0.00,0.03,-0.02,-0.02
4.49,0.13,-0.09,-0.00,0.03,-0.00,-0.02
4.49,0.12,-0.09,-0.07,0.03,-0.00,-0.02
4.49,0.12,-0.09,-0.07,0.03,0.01,-0.02
4.493,0.12,-0.09,-0.07,0.02,0.03,-0.02
4.493,0.16,-0.05,-0.07,0.02,0.03,-0.02
4.496,0.16,-0.05,-0.07,0.02,0.05,-0.02
4.496,0.15,-0.02,-0.12,0.02,0.05,-0.02
4.497,0.15,-0.02,-0.12,0.02,0.06,-0.02
4.5,0.15,-0.02,-0.12,0.01,0.08,-0.02
4.5,0.18,0.03,-0.15,0.01,0.08,-0.02
4.504,0.15,0.06,-0.14,0.01,0.08,-0.02
4.504,0.15,0.06,-0.14,0.01,0.10,-0.02
4.504,0.15,0.06,-0.14,0.00,0.11,-0.02
4.509,0.15,0.06,-0.14,-0.00,0.12,-0.02
4.509,0.19,0.07,-0.16,-0.00,0.12,-0.02
4.51,0.19,0.07,-0.16,-0.00,0.14,-0.02
4.512,0.19,0.07,-0.16,-0.01,0.15,-0.02
4.513,0.18,0.09,-0.14,-0.01,0.15,-0.02
4.516,0.18,0.09,-0.14,-0.01,0.16,-0.02
4.516,0.21,0.07,-0.13,-0.01,0.16,-0.02
4.516,0.21,0.07,-0.13,-0.02,0.17,-0.02
4.52,0.21,0.07,-0.13,-0.02,0.18,-0.02
4.52,0.15,0.06,-0.10,-0.02,0.18,-0.02
4.524,0.15,0.03,-0.09,-0.02,0.18,-0.02
4.524,0.15,0.03,-0.09,-0.02,0.18,-0.02
4.524,0.15,0.03,-0.09,-0.02,0.19,-0.02
4.529,0.15,0.03,-0.09,-0.03,0.19,-0.01
4.53,0.15,0.03,-0.09,-0.02,0.19,-0.01
4.53,0.11,0.02,-0.05,-0.02,0.19,-0.01
4.533,0.11,-0.01,-0.03,-0.02,0.19,-0.01
4.533,0.11,-0.01,-0.03,-0.03,0.19,-0.01
4.536,0.11,-0.01,-0.03,-0.03,0.18,-0.01
4.536,0.06,-0.04,-0.02,-0.03,0.18,-0.01
4.536,0.06,-0.04,-0.02,-0.03,0.18,-0.00
4.539,0.06,-0.04,-0.02,-0.03,0.17,-0.00
4.539,0.06,-0.04,0.02,-0.03,0.17,-0.00
4.543,0.06,-0.04,0.02,-0.02,0.17,-0.00
4.543,0.04,-0.05,0.03,-0.02,0.17,-0.00
4.544,0.04,-0.05,0.03,-0.02,0.16,0.00
4.548,0.04,-0.05,0.03,-0.02,0.15,0.00
4.548,0.02,-0.04,0.04,-0.02,0.15,0.00
4.549,0.02,-0.04,0.04,-0.02,0.14,0.00
4.552,0.01,-0.03,0.05,-0.02,0.14,0.00
4.553,0.01,-0.03,0.05,-0.02,0.12,0.00
4.556,0.01,-0.03,0.05,-0.02,0.11,0.00
4.557,0.01,0.00,0.07,-0.02,0.11,0.00
4.558,0.01,0.00,0.07,-0.01,0.10,0.00
4.56,0.01,0.00,0.07,-0.01,0.08,-0.00
4.56,0.01,-0.01,0.08,-0.01,0.08,-0.00
4.565,0.01,-0.01,0.08,-0.01,0.07,-0.00
4.566,0.01,-0.02,0.08,-0.01,0.07,-0.00
4.566,0.01,-0.02,0.08,-0.00,0.05,-0.00
4.57,0.01,-0.02,0.08,-0.00,0.04,-0.00
4.57,0.01,0.03,0.07,-0.00,0.04,-0.00
4.57,0.01,0.03,0.07,0.00,0.02,-0.01
4.572,-0.03,-0.00,0.06,0.00,0.02,-0.01
4.572,-0.03,-0.00,0.06,0.00,0.01,-0.01
4.576,-0.03,-0.00,0.06,0.01,-0.00,-0.01
4.576,-0.02,0.02,0.04,0.01,-0.00,-0.01
4.577,-0.02,0.02,0.04,0.01,-0.02,-0.01
4.58,-0.01,0.04,0.02,0.01,-0.02,-0.01
4.58,-0.01,0.04,0.02,0.01,-0.03,-0.01
4.584,-0.00,0.03,-0.00,0.01,-0.03,-0.01
4.585,-0.00,0.03,-0.00,0.01,-0.04,-0.01
4.585,-0.00,0.03,-0.00,0.01,-0.05,-0.01
4.589,-0.00,0.03,-0.00,0.01,-0.06,-0.01
4.589,0.01,0.04,-0.01,0.01,-0.06,-0.01
4.59,0.01,0.04,-0.01,0.01,-0.07,-0.01
4.592,0.00,0.07,-0.04,0.01,-0.07,-0.01
4.592,0.00,0.07,-0.04,0.01,-0.08,-0.01
4.597,0.03,0.05,-0.07,0.01,-0.08,-0.01
4.597,0.03,0.05,-0.07,0.01,-0.08,-0.01
4.597,0.03,0.05,-0.07,0.00,-0.08,-0.01
4.6,0.03,0.05,-0.07,0.00,-0.08,-0.02
4.601,0.06,0.07,-0.08,0.00,-0.08,-0.02
4.605,0.05,0.05,-0.10,0.00,-0.08,-0.02
4.607,0.05,0.05,-0.10,-0.00,-0.08,-0.01
4.624,0.05,0.05,-0.10,-0.00,-0.08,-0.02
4.625,0.05,0.05,-0.10,-0.00,-0.08,-0.02
4.625,0.05,0.05,-0.10,-0.01,-0.07,-0.01
4.625,0.06,0.03,-0.09,-0.01,-0.07,-0.01
4.625,0.06,0.03,-0.09,-0.01,-0.07,-0.02
4.625,0.05,0.03,-0.11,-0.01,-0.07,-0.02
4.625,0.05,0.03,-0.11,-0.01,-0.06,-0.02
4.626,0.09,0.01,-0.11,-0.01,-0.06,-0.02
4.626,0.09,0.01,-0.11,-0.01,-0.05,-0.01
4.626,0.09,0.01,-0.11,-0.01,-0.05,-0.01
4.626,0.09,0.01,-0.11,-0.01,-0.04,-0.01
4.626,0.09,0.01,-0.11,-0.02,-0.04,-0.01
4.626,0.11,-0.02,-0.10,-0.02,-0.04,-0.01
4.627,0.11,-0.02,-0.10,-0.02,-0.03,-0.01
4.629,0.10,-0.03,-0.09,-0.02,-0.03,-0.01
4.63,0.10,-0.03,-0.09,-0.02,-0.01,-0.01
4.63,0.10,-0.03,-0.09,-0.02,-0.00,-0.01
4.632,0.07,0.01,-0.08,-0.02,-0.00,-0.01
4.632,0.07,0.01,-0.08,-0.02,0.01,-0.01
4.636,0.07,0.01,-0.08,-0.03,0.02,-0.00
4.636,0.05,0.03,-0.08,-0.03,0.02,-0.00
4.637,0.05,0.03,-0.08,-0.02,0.03,-0.00
4.64,0.09,0.05,-0.06,-0.02,0.03,-0.00
4.641,0.09,0.05,-0.06,-0.02,0.03,-0.00
4.643,0.07,0.07,-0.01,-0.02,0.03,-0.00
4.644,0.07,0.07,-0.01,-0.02,0.04,-0.00
4.644,0.07,0.07,-0.01,-0.02,0.05,-0.00
4.648,0.05,0.05,-0.00,-0.02,0.05,-0.00
4.648,0.05,0.05,-0.00,-0.02,0.06,-0.00
4.648,0.05,0.05,-0.00,-0.02,0.06,-0.00
4.653,0.05,0.05,-0.00,-0.01,0.07,-0.00
4.653,0.08,0.07,0.04,-0.01,0.07,-0.00
4.656,0.08,0.07,0.04,-0.01,0.07,-0.01
4.657,0.10,0.10,0.05,-0.01,0.07,-0.01
4.657,0.10,0.10,0.05,-0.01,0.07,-0.01
4.659,0.10,0.10,0.05,-0.00,0.07,-0.01
4.66,0.07,0.06,0.08,-0.00,0.07,-0.01
4.663,0.07,0.06,0.08,0.00,0.07,-0.01
4.664,0.08,0.09,0.08,0.00,0.07,-0.01
4.664,0.08,0.09,0.08,0.01,0.07,-0.01
4.668,0.08,0.09,0.08,0.01,0.06,-0.01
4.668,0.03,0.04,0.11,0.01,0.06,-0.01
4.668,0.03,0.04,0.11,0.02,0.06,-0.02
4.672,0.01,0.05,0.14,0.02,0.06,-0.02
4.672,0.01,0.05,0.14,0.02,0.06,-0.02
4.676,0.01,0.05,0.14,0.03,0.05,-0.02
4.676,-0.02,0.04,0.15,0.03,0.05,-0.02
4.676,-0.02,0.04,0.15,0.03,0.04,-0.02
4.68,-0.02,0.04,0.15,0.04,0.04,-0.02
4.68,-0.05,0.03,0.16,0.04,0.04,-0.02
4.684,-0.06,0.03,0.16,0.04,0.04,-0.02
4.684,-0.06,0.03,0.16,0.04,0.03,-0.02
4.684,-0.06,0.03,0.16,0.05,0.03,-0.02
4.689,-0.06,0.03,0.16,0.05,0.02,-0.02
4.69,-0.06,0.03,0.16,0.06,0.01,-0.02
4.69,-0.10,0.00,0.15,0.06,0.01,-0.02
4.693,-0.08,-0.02,0.14,0.06,0.01,-0.02
4.693,-0.08,-0.02,0.14,0.06,-0.00,-0.02
4.696,-0.08,-0.02,0.14,0.06,-0.01,-0.02
4.696,-0.05,-0.03,0.15,0.06,-0.01,-0.02
4.696,-0.05,-0.03,0.15,0.07,-0.02,-0.02
4.7,-0.05,-0.03,0.15,0.07,-0.03,-0.02
4.701,-0.01,-0.06,0.11,0.07,-0.03,-0.02
4.704,0.01,-0.08,0.10,0.07,-0.03,-0.02
4.704,0.01,-0.08,0.10,0.07,-0.04,-0.02
4.706,0.01,-0.08,0.10,0.07,-0.05,-0.03
4.708,0.03,-0.06,0.07,0.07,-0.05,-0.03
4.709,0.03,-0.06,0.07,0.07,-0.05,-0.03
4.709,0.03,-0.06,0.07,0.07,-0.06,-0.03
4.711,0.04,-0.06,0.02,0.07,-0.06,-0.03
4.712,0.04,-0.06,0.02,0.07,-0.07,-0.03
4.717,0.04,-0.06,0.02,0.06,-0.08,-0.03
4.717,0.04,-0.07,-0.03,0.06,-0.08,-0.03
4.717,0.04,-0.07,-0.03,0.06,-0.08,-0.03
4.72,0.04,-0.07,-0.03,0.05,-0.08,-0.03
4.721,0.06,-0.06,-0.05,0.05,-0.08,-0.03
4.724,0.07,-0.04,-0.09,0.05,-0.08,-0.03
4.725,0.07,-0.04,-0.09,0.05,-0.09,-0.03
4.725,0.07,-0.04,-0.09,0.04,-0.09,-0.03
4.729,0.07,-0.04,-0.09,0.03,-0.09,-0.03
4.729,0.08,-0.07,-0.12,0.03,-0.09,-0.03
4.73,0.08,-0.07,-0.12,0.03,-0.09,-0.03
4.732,0.13,-0.03,-0.12,0.03,-0.09,-0.03
4.732,0.13,-0.03,-0.12,0.02,-0.09,-0.03
4.738,0.13,-0.03,-0.12,0.01,-0.09,-0.04
4.738,0.13,-0.03,-0.12,0.00,-0.09,-0.04
4.738,0.15,-0.04,-0.13,0.00,-0.09,-0.04
4.74,0.15,-0.04,-0.13,-0.00,-0.09,-0.04
4.74,0.15,-0.02,-0.14,-0.00,-0.09,-0.04
4.743,0.15,-0.02,-0.14,-0.01,-0.09,-0.04
4.743,0.20,-0.03,-0.13,-0.01,-0.09,-0.04
4.744,0.20,-0.03,-0.13,-0.02,-0.08,-0.04
4.748,0.20,-0.03,-0.13,-0.02,-0.08,-0.04
4.748,0.17,-0.03,-0.12,-0.02,-0.08,-0.04
4.749,0.17,-0.03,-0.12,-0.03,-0.07,-0.04
4.754,0.21,-0.03,-0.08,-0.03,-0.07,-0.04
4.755,0.21,-0.03,-0.08,-0.03,-0.07,-0.04
4.757,0.21,-0.03,-0.08,-0.03,-0.06,-0.05
4.757,0.21,-0.02,-0.04,-0.03,-0.06,-0.05
4.757,0.21,-0.02,-0.04,-0.04,-0.05,-0.05
