
time,wx,wy,wz,ax,ay,az
0.01,0.15,-0.10,0.18,0.03,-0.13,-1.24
0.011,0.15,-0.10,0.18,0.07,-0.09,-1.23
0.013,0.08,-0.10,0.18,0.07,-0.09,-1.23
0.014,0.08,-0.10,0.18,0.18,-0.06,-1.10
0.014,0.01,-0.09,0.17,0.18,-0.06,-1.10
0.015,0.01,-0.09,0.17,0.27,-0.05,-0.97
0.016,0.01,-0.09,0.17,0.31,-0.08,-0.78
0.016,-0.05,-0.09,0.16,0.31,-0.08,-0.78
0.017,-0.10,-0.09,0.15,0.31,-0.08,-0.78
0.018,-0.10,-0.09,0.15,0.36,-0.04,-0.57
0.019,-0.12,-0.08,0.13,0.36,-0.04,-0.57
0.019,-0.12,-0.08,0.13,0.38,-0.06,-0.33
0.02,-0.13,-0.08,0.12,0.38,-0.06,-0.33
0.021,-0.13,-0.08,0.12,0.40,-0.05,-0.07
0.028,-0.13,-0.08,0.12,0.41,-0.05,0.12
0.029,-0.13,-0.07,0.10,0.41,-0.05,0.12
0.03,-0.11,-0.07,0.09,0.41,-0.05,0.12
0.031,-0.11,-0.07,0.09,0.40,-0.07,0.27
0.039,-0.09,-0.05,0.08,0.40,-0.07,0.27
0.04,-0.09,-0.05,0.08,0.36,-0.04,0.37
0.041,-0.06,-0.04,0.07,0.36,-0.04,0.37
0.042,-0.06,-0.04,0.07,0.36,-0.06,0.38
0.044,-0.02,-0.03,0.06,0.36,-0.06,0.38
0.046,-0.02,-0.03,0.06,0.36,-0.04,0.32
0.048,0.00,-0.02,0.06,0.36,-0.04,0.32
0.049,0.00,-0.02,0.06,0.36,-0.07,0.17
0.06,0.03,-0.02,0.06,0.36,-0.07,0.17
0.062,0.03,-0.02,0.06,0.32,-0.07,0.13
0.064,0.04,-0.02,0.06,0.32,-0.07,0.13
0.065,0.04,-0.02,0.06,0.24,-0.05,0.09
0.066,0.04,-0.02,0.06,0.24,-0.06,0.02
0.066,0.06,-0.02,0.06,0.24,-0.06,0.02
0.07,0.07,-0.02,0.06,0.24,-0.06,0.02
0.072,0.07,-0.02,0.06,0.25,-0.06,-0.03
0.074,0.08,-0.01,0.05,0.25,-0.06,-0.03
0.075,0.08,-0.01,0.05,0.29,-0.05,-0.12
0.085,0.09,-0.01,0.04,0.29,-0.05,-0.12
0.087,0.09,-0.01,0.04,0.29,-0.06,-0.20
0.088,0.08,-0.02,0.03,0.29,-0.06,-0.20
0.089,0.08,-0.02,0.03,0.28,-0.08,-0.23
0.09,0.08,-0.02,0.03,0.25,-0.07,-0.20
0.091,0.08,-0.02,0.02,0.25,-0.07,-0.20
0.094,0.08,-0.02,0.02,0.21,-0.09,-0.21
0.095,0.07,-0.03,0.02,0.21,-0.09,-0.21
0.099,0.07,-0.03,0.02,0.17,-0.07,-0.14
0.101,0.07,-0.04,0.01,0.17,-0.07,-0.14
0.104,0.07,-0.05,0.01,0.17,-0.07,-0.14
0.105,0.07,-0.05,0.01,0.13,-0.09,-0.07
0.109,0.07,-0.05,0.01,0.14,-0.09,-0.00
0.109,0.07,-0.06,0.01,0.14,-0.09,-0.00
0.116,0.07,-0.06,0.01,0.16,-0.10,0.03
0.117,0.09,-0.06,0.01,0.16,-0.10,0.03
0.119,0.10,-0.05,-0.00,0.16,-0.10,0.03
0.119,0.10,-0.05,-0.00,0.21,-0.09,0.05
0.124,0.11,-0.04,-0.01,0.21,-0.09,0.05
0.125,0.11,-0.04,-0.01,0.18,-0.14,0.06
0.131,0.11,-0.04,-0.01,0.12,-0.19,0.06
0.132,0.13,-0.03,-0.01,0.12,-0.19,0.06
0.134,0.13,-0.03,-0.01,0.06,-0.16,0.09
0.135,0.14,-0.01,-0.01,0.06,-0.16,0.09
0.139,0.14,-0.01,-0.01,0.03,-0.17,0.06
0.14,0.14,0.00,-0.01,0.03,-0.17,0.06
0.144,0.14,0.00,-0.01,-0.02,-0.16,0.07
0.145,0.14,0.02,-0.00,-0.02,-0.16,0.07
0.149,0.15,0.03,0.00,-0.02,-0.16,0.07
0.15,0.15,0.03,0.00,-0.01,-0.15,0.11
0.155,0.15,0.03,0.00,0.02,-0.15,0.12
0.156,0.14,0.03,0.00,0.02,-0.15,0.12
0.159,0.14,0.03,0.00,0.01,-0.11,0.16
0.16,0.14,0.04,-0.00,0.01,-0.11,0.16
0.165,0.14,0.04,-0.00,-0.01,-0.07,0.24
0.167,0.15,0.04,-0.01,-0.01,-0.07,0.24
0.169,0.15,0.03,-0.02,-0.01,-0.07,0.24
0.171,0.15,0.03,-0.02,0.03,0.01,0.35
0.175,0.15,0.01,-0.05,0.03,0.01,0.35
0.176,0.15,0.01,-0.05,0.10,0.04,0.42
0.181,0.15,0.00,-0.08,0.10,0.04,0.42
0.183,0.15,0.00,-0.08,0.12,0.03,0.51
0.184,0.14,0.00,-0.11,0.12,0.03,0.51
0.185,0.14,0.00,-0.11,0.10,-0.01,0.61
0.189,0.14,0.00,-0.11,0.03,-0.04,0.70
0.19,0.15,0.03,-0.15,0.03,-0.04,0.70
0.194,0.15,0.03,-0.15,0.03,-0.04,0.84
0.195,0.15,0.08,-0.18,0.03,-0.04,0.84
0.218,0.15,0.08,-0.18,0.04,-0.09,1.02
0.22,0.16,0.13,-0.20,0.04,-0.09,1.02
0.221,0.16,0.18,-0.22,0.04,-0.09,1.02
0.222,0.16,0.18,-0.22,0.03,-0.10,1.11
0.223,0.18,0.25,-0.23,0.03,-0.10,1.11
0.224,0.18,0.25,-0.23,0.02,-0.06,1.09
0.225,0.18,0.25,-0.23,0.04,-0.04,1.06
0.226,0.19,0.33,-0.25,0.04,-0.04,1.06
0.227,0.20,0.42,-0.27,0.04,-0.04,1.06
0.229,0.20,0.42,-0.27,0.07,0.03,0.98
0.23,0.19,0.49,-0.29,0.07,0.03,0.98
0.231,0.19,0.49,-0.29,0.18,0.12,0.90
0.233,0.19,0.55,-0.31,0.18,0.12,0.90
0.234,0.19,0.55,-0.31,0.30,0.22,0.76
0.235,0.17,0.58,-0.34,0.30,0.22,0.76
0.236,0.17,0.58,-0.34,0.30,0.24,0.61
0.264,0.14,0.60,-0.38,0.30,0.24,0.61
0.265,0.14,0.60,-0.38,0.31,0.30,0.47
0.267,0.11,0.61,-0.42,0.31,0.30,0.47
0.268,0.11,0.61,-0.42,0.33,0.38,0.30
0.269,0.11,0.61,-0.42,0.37,0.44,0.14
0.27,0.09,0.62,-0.47,0.37,0.44,0.14
0.271,0.09,0.62,-0.47,0.32,0.47,0.02
0.272,0.06,0.62,-0.51,0.32,0.47,0.02
0.272,0.06,0.62,-0.51,0.30,0.51,0.02
0.273,0.02,0.61,-0.55,0.30,0.51,0.02
0.274,0.02,0.61,-0.55,0.29,0.55,-0.04
0.275,-0.02,0.59,-0.58,0.29,0.55,-0.04
0.275,-0.05,0.59,-0.61,0.29,0.55,-0.04
0.276,-0.05,0.59,-0.61,0.29,0.58,-0.04
0.276,-0.05,0.59,-0.61,0.21,0.55,-0.20
0.277,-0.08,0.60,-0.62,0.21,0.55,-0.20
0.28,-0.08,0.60,-0.62,0.03,0.56,-0.33
0.281,-0.12,0.62,-0.61,0.03,0.56,-0.33
0.285,-0.12,0.62,-0.61,-0.04,0.58,-0.39
0.286,-0.16,0.64,-0.58,-0.04,0.58,-0.39
0.29,-0.16,0.64,-0.58,-0.03,0.62,-0.41
0.291,-0.20,0.65,-0.56,-0.03,0.62,-0.41
0.297,-0.24,0.65,-0.54,-0.03,0.62,-0.41
0.298,-0.24,0.65,-0.54,0.00,0.66,-0.41
0.3,-0.24,0.65,-0.54,-0.05,0.64,-0.41
0.301,-0.28,0.64,-0.53,-0.05,0.64,-0.41
0.305,-0.28,0.64,-0.53,-0.16,0.57,-0.35
0.306,-0.32,0.62,-0.51,-0.16,0.57,-0.35
0.31,-0.32,0.62,-0.51,-0.26,0.52,-0.28
0.311,-0.37,0.60,-0.50,-0.26,0.52,-0.28
0.315,-0.37,0.60,-0.50,-0.30,0.50,-0.22
0.316,-0.40,0.57,-0.49,-0.30,0.50,-0.22
0.32,-0.40,0.57,-0.49,-0.28,0.43,-0.14
0.321,-0.44,0.54,-0.47,-0.28,0.43,-0.14
0.325,-0.44,0.54,-0.47,-0.21,0.35,-0.20
0.326,-0.47,0.50,-0.44,-0.21,0.35,-0.20
0.34,-0.51,0.48,-0.41,-0.21,0.35,-0.20
0.341,-0.51,0.48,-0.41,-0.60,0.30,-0.16
0.342,-0.55,0.50,-0.37,-0.60,0.30,-0.16
0.342,-0.55,0.50,-0.37,-0.83,0.31,-0.07
0.343,-0.58,0.53,-0.33,-0.83,0.31,-0.07
0.344,-0.58,0.53,-0.33,-0.58,0.33,-0.25
0.346,-0.58,0.53,-0.33,-0.46,0.33,-0.31
0.348,-0.61,0.57,-0.28,-0.46,0.33,-0.31
0.35,-0.64,0.60,-0.22,-0.46,0.33,-0.31
0.351,-0.64,0.60,-0.22,-0.53,0.32,-0.14
0.355,-0.66,0.64,-0.17,-0.53,0.32,-0.14
0.356,-0.66,0.64,-0.17,-0.69,0.37,-0.11
0.361,-0.67,0.69,-0.11,-0.69,0.37,-0.11
0.362,-0.67,0.69,-0.11,-0.79,0.43,-0.21
0.366,-0.68,0.76,-0.06,-0.79,0.43,-0.21
0.368,-0.68,0.76,-0.06,-0.76,0.45,-0.30
0.37,-0.69,0.83,-0.01,-0.76,0.45,-0.30
0.371,-0.69,0.83,-0.01,-0.60,0.36,-0.19
0.375,-0.70,0.88,0.03,-0.60,0.36,-0.19
0.376,-0.70,0.88,0.03,-0.48,0.29,-0.01
0.381,-0.70,0.88,0.03,-0.47,0.23,0.01
0.382,-0.69,0.91,0.07,-0.47,0.23,0.01
0.386,-0.69,0.91,0.07,-0.46,0.18,-0.06
0.387,-0.69,0.93,0.10,-0.46,0.18,-0.06
0.391,-0.69,0.95,0.14,-0.46,0.18,-0.06
0.392,-0.69,0.95,0.14,-0.45,0.20,-0.14
0.398,-0.69,0.95,0.14,-0.46,0.24,-0.15
0.4,-0.68,0.96,0.17,-0.46,0.24,-0.15
0.401,-0.68,0.96,0.17,-0.44,0.28,-0.27
0.402,-0.67,0.95,0.20,-0.44,0.28,-0.27
0.406,-0.67,0.95,0.20,-0.41,0.40,-0.33
0.407,-0.66,0.94,0.23,-0.41,0.40,-0.33
0.411,-0.66,0.94,0.23,-0.40,0.48,-0.50
0.413,-0.66,0.93,0.26,-0.40,0.48,-0.50
0.424,-0.65,0.93,0.29,-0.40,0.48,-0.50
0.426,-0.65,0.93,0.29,-0.44,0.52,-0.75
0.427,-0.65,0.93,0.29,-0.42,0.54,-0.81
0.427,-0.66,0.93,0.32,-0.42,0.54,-0.81
0.428,-0.66,0.93,0.32,-0.42,0.49,-0.72
0.429,-0.66,0.93,0.35,-0.42,0.49,-0.72
0.433,-0.66,0.90,0.37,-0.42,0.49,-0.72
0.435,-0.66,0.90,0.37,-0.30,0.42,-0.45
0.436,-0.66,0.90,0.37,-0.17,0.32,-0.10
0.437,-0.66,0.83,0.38,-0.17,0.32,-0.10
0.441,-0.66,0.83,0.38,-0.14,0.27,0.24
0.442,-0.64,0.70,0.37,-0.14,0.27,0.24
0.448,-0.64,0.70,0.37,-0.16,0.18,0.55
0.449,-0.62,0.54,0.37,-0.16,0.18,0.55
0.452,-0.59,0.36,0.36,-0.16,0.18,0.55
0.453,-0.59,0.36,0.36,-0.26,0.12,0.76
0.456,-0.54,0.19,0.36,-0.26,0.12,0.76
0.457,-0.54,0.19,0.36,-0.37,0.16,0.84
0.462,-0.50,0.05,0.36,-0.37,0.16,0.84
0.463,-0.50,0.05,0.36,-0.42,0.16,0.86
0.467,-0.50,0.05,0.36,-0.47,0.16,0.85
0.468,-0.44,-0.05,0.37,-0.47,0.16,0.85
0.471,-0.38,-0.09,0.40,-0.47,0.16,0.85
0.472,-0.38,-0.09,0.40,-0.45,0.17,0.85
0.476,-0.38,-0.09,0.40,-0.44,0.22,0.82
0.477,-0.32,-0.09,0.42,-0.44,0.22,0.82
0.491,-0.32,-0.09,0.42,-0.43,0.14,0.70
0.492,-0.25,-0.04,0.46,-0.43,0.14,0.70
0.493,-0.17,0.05,0.50,-0.43,0.14,0.70
0.494,-0.17,0.05,0.50,-0.40,0.11,0.76
0.514,-0.10,0.14,0.54,-0.40,0.11,0.76
0.515,-0.10,0.14,0.54,-0.35,0.11,0.90
0.517,-0.10,0.14,0.54,-0.33,0.08,0.90
0.519,-0.02,0.22,0.58,-0.33,0.08,0.90
0.52,-0.02,0.22,0.58,-0.39,0.08,0.92
0.522,0.07,0.28,0.62,-0.39,0.08,0.92
0.523,0.07,0.28,0.62,-0.53,-0.05,0.91
0.524,0.16,0.31,0.66,-0.53,-0.05,0.91
0.525,0.16,0.31,0.66,-0.66,-0.34,0.91
0.526,0.23,0.33,0.70,-0.66,-0.34,0.91
0.527,0.31,0.32,0.73,-0.66,-0.34,0.91
0.528,0.31,0.32,0.73,-0.67,-0.50,0.98
0.529,0.31,0.32,0.73,-0.65,-0.51,1.08
0.53,0.41,0.25,0.76,-0.65,-0.51,1.08
0.531,0.52,0.10,0.79,-0.65,-0.51,1.08
0.532,0.52,0.10,0.79,-0.59,-0.46,1.20
0.534,0.65,-0.10,0.82,-0.59,-0.46,1.20
0.535,0.65,-0.10,0.82,-0.60,-0.29,1.20
0.542,0.80,-0.31,0.86,-0.60,-0.29,1.20
0.543,0.80,-0.31,0.86,-0.60,-0.07,1.03
0.544,0.80,-0.31,0.86,-0.50,0.04,0.69
0.545,0.96,-0.52,0.89,-0.50,0.04,0.69
0.548,0.96,-0.52,0.89,-0.36,0.08,0.26
0.55,1.10,-0.70,0.91,-0.36,0.08,0.26
0.552,1.21,-0.87,0.91,-0.36,0.08,0.26
0.552,1.21,-0.87,0.91,-0.27,0.00,-0.29
0.557,1.27,-1.01,0.89,-0.27,0.00,-0.29
0.557,1.27,-1.01,0.89,-0.33,-0.05,-0.73
0.564,1.27,-1.01,0.89,-0.52,-0.12,-0.36
0.565,1.28,-0.95,0.85,-0.52,-0.12,-0.36
0.567,1.26,-0.65,0.79,-0.52,-0.12,-0.36
0.568,1.26,-0.65,0.79,0.14,-0.31,-0.84
0.572,1.16,-0.60,0.71,0.14,-0.31,-0.84
0.573,1.16,-0.60,0.71,0.89,-0.56,-2.51
0.577,0.98,-0.72,0.62,0.89,-0.56,-2.51
0.578,0.98,-0.72,0.62,0.66,-0.69,-3.17
0.582,0.78,-0.66,0.58,0.66,-0.69,-3.17
0.584,0.78,-0.66,0.58,0.15,-0.59,-2.77
0.587,0.78,-0.66,0.58,0.07,-0.47,-2.48
0.588,0.58,-0.52,0.56,0.07,-0.47,-2.48
0.592,0.37,-0.47,0.57,0.07,-0.47,-2.48
0.593,0.37,-0.47,0.57,0.02,-0.50,-2.39
0.607,0.17,-0.41,0.59,0.02,-0.50,-2.39
0.609,0.17,-0.41,0.59,-0.21,-0.61,-2.02
0.609,0.01,-0.31,0.62,-0.21,-0.61,-2.02
0.61,0.01,-0.31,0.62,-0.30,-0.65,-1.37
0.611,-0.10,-0.21,0.65,-0.30,-0.65,-1.37
0.612,-0.10,-0.21,0.65,-0.26,-0.62,-0.70
0.613,-0.10,-0.21,0.65,-0.19,-0.60,-0.01
0.614,-0.14,-0.12,0.67,-0.19,-0.60,-0.01
0.627,-0.13,-0.06,0.69,-0.19,-0.60,-0.01
0.628,-0.13,-0.06,0.69,-0.11,-0.58,0.64
0.629,-0.08,-0.04,0.70,-0.11,-0.58,0.64
0.63,-0.08,-0.04,0.70,-0.05,-0.51,0.98
0.631,0.00,-0.06,0.72,-0.05,-0.51,0.98
0.632,0.00,-0.06,0.72,0.21,-0.50,1.14
0.633,0.00,-0.06,0.72,0.55,-0.47,1.20
0.633,0.10,-0.14,0.72,0.55,-0.47,1.20
0.637,0.19,-0.24,0.70,0.55,-0.47,1.20
0.639,0.19,-0.24,0.70,0.92,-0.41,1.08
0.642,0.29,-0.35,0.66,0.92,-0.41,1.08
0.643,0.29,-0.35,0.66,1.25,-0.37,0.78
0.648,0.29,-0.35,0.66,1.51,-0.39,0.43
0.65,0.37,-0.46,0.60,1.51,-0.39,0.43
0.653,0.37,-0.46,0.60,1.70,-0.35,0.06
0.654,0.43,-0.57,0.53,1.70,-0.35,0.06
0.658,0.43,-0.57,0.53,1.84,-0.28,-0.23
0.659,0.47,-0.69,0.46,1.84,-0.28,-0.23
0.664,0.49,-0.83,0.37,1.84,-0.28,-0.23
0.666,0.49,-0.83,0.37,1.82,-0.16,-0.48
0.668,0.49,-0.99,0.29,1.82,-0.16,-0.48
0.669,0.49,-0.99,0.29,1.76,-0.04,-0.68
0.673,0.49,-1.14,0.20,1.76,-0.04,-0.68
0.674,0.49,-1.14,0.20,1.67,0.11,-0.79
0.678,0.49,-1.30,0.11,1.67,0.11,-0.79
0.679,0.49,-1.30,0.11,1.48,0.28,-0.83
0.683,0.49,-1.30,0.11,1.32,0.37,-0.83
0.685,0.50,-1.47,0.04,1.32,0.37,-0.83
0.688,0.50,-1.47,0.04,1.20,0.38,-0.76
0.689,0.51,-1.66,-0.04,1.20,0.38,-0.76
0.693,0.52,-1.85,-0.11,1.20,0.38,-0.76
0.694,0.52,-1.85,-0.11,1.07,0.38,-0.73
0.698,0.53,-2.02,-0.17,1.07,0.38,-0.73
0.7,0.53,-2.02,-0.17,0.95,0.26,-0.71
0.704,0.52,-2.19,-0.23,0.95,0.26,-0.71
0.705,0.52,-2.19,-0.23,0.91,0.15,-0.76
0.71,0.52,-2.19,-0.23,0.52,0.14,-0.90
0.711,0.52,-2.35,-0.28,0.52,0.14,-0.90
0.714,0.52,-2.35,-0.28,-1.15,0.45,-1.71
0.716,0.49,-2.47,-0.30,-1.15,0.45,-1.71
0.719,0.42,-2.50,-0.23,-1.15,0.45,-1.71
0.72,0.42,-2.50,-0.23,-3.27,0.94,-2.55
0.723,0.32,-2.46,-0.05,-3.27,0.94,-2.55
0.724,0.32,-2.46,-0.05,-4.53,1.19,-3.01
0.729,0.32,-2.46,-0.05,-4.13,1.04,-3.06
0.73,0.19,-2.32,0.17,-4.13,1.04,-3.06
0.742,0.06,-2.14,0.38,-4.13,1.04,-3.06
0.744,0.06,-2.14,0.38,-2.56,0.48,-2.49
0.745,0.06,-2.14,0.38,-0.68,-0.24,-1.49
0.746,-0.05,-1.98,0.50,-0.68,-0.24,-1.49
0.762,-0.12,-1.86,0.53,-0.68,-0.24,-1.49
0.765,-0.12,-1.86,0.53,0.73,-0.60,-0.75
0.766,-0.12,-1.86,0.53,1.20,-0.53,-0.41
0.768,-0.16,-1.76,0.50,1.20,-0.53,-0.41
0.769,-0.16,-1.76,0.50,0.78,-0.30,-0.21
0.77,-0.17,-1.67,0.47,0.78,-0.30,-0.21
0.771,-0.16,-1.58,0.46,0.78,-0.30,-0.21
0.772,-0.16,-1.58,0.46,0.18,-0.10,-0.19
0.774,-0.16,-1.58,0.46,-0.19,-0.03,-0.37
0.775,-0.15,-1.51,0.48,-0.19,-0.03,-0.37
0.776,-0.15,-1.51,0.48,-0.28,-0.09,-0.59
0.776,-0.14,-1.46,0.51,-0.28,-0.09,-0.59
0.777,-0.14,-1.41,0.55,-0.28,-0.09,-0.59
0.778,-0.14,-1.41,0.55,-0.24,-0.08,-0.75
0.779,-0.14,-1.39,0.58,-0.24,-0.08,-0.75
0.78,-0.14,-1.39,0.58,-0.20,-0.09,-0.80
0.791,-0.14,-1.39,0.58,-0.15,-0.13,-0.91
0.792,-0.14,-1.41,0.59,-0.15,-0.13,-0.91
0.793,-0.15,-1.44,0.61,-0.15,-0.13,-0.91
0.794,-0.15,-1.44,0.61,-0.06,-0.21,-1.03
0.795,-0.15,-1.44,0.61,0.09,-0.24,-1.12
0.796,-0.16,-1.50,0.63,0.09,-0.24,-1.12
0.798,-0.17,-1.60,0.65,0.09,-0.24,-1.12
0.8,-0.17,-1.60,0.65,0.19,-0.28,-1.16
0.805,-0.18,-1.75,0.68,0.19,-0.28,-1.16
0.806,-0.18,-1.75,0.68,0.21,-0.21,-1.11
0.809,-0.18,-1.75,0.68,0.18,-0.16,-1.02
0.81,-0.20,-1.90,0.71,0.18,-0.16,-1.02
0.814,-0.23,-2.05,0.73,0.18,-0.16,-1.02
0.815,-0.23,-2.05,0.73,0.18,-0.09,-0.90
0.819,-0.23,-2.05,0.73,0.23,-0.00,-0.77
0.82,-0.26,-2.19,0.73,0.23,-0.00,-0.77
0.824,-0.26,-2.19,0.73,-0.06,0.02,-0.09
0.825,-0.29,-2.29,0.73,-0.06,0.02,-0.09
0.83,-0.29,-2.29,0.73,-0.46,0.07,0.78
0.832,-0.27,-2.24,0.74,-0.46,0.07,0.78
0.834,-0.27,-2.24,0.74,0.06,0.18,0.04
0.835,-0.22,-2.08,0.75,0.06,0.18,0.04
0.839,-0.22,-2.08,0.75,0.38,0.11,-0.20
0.84,-0.21,-1.94,0.74,0.38,0.11,-0.20
0.845,-0.22,-1.77,0.70,0.38,0.11,-0.20
0.847,-0.22,-1.77,0.70,0.25,-0.05,0.51
0.85,-0.22,-1.77,0.70,0.14,-0.11,1.02
0.852,-0.21,-1.54,0.64,0.14,-0.11,1.02
0.855,-0.21,-1.54,0.64,0.20,-0.08,1.02
0.856,-0.19,-1.33,0.58,0.20,-0.08,1.02
0.86,-0.19,-1.12,0.52,0.20,-0.08,1.02
0.862,-0.19,-1.12,0.52,0.27,-0.09,0.97
0.867,-0.18,-0.91,0.46,0.27,-0.09,0.97
0.87,-0.18,-0.91,0.46,0.23,-0.15,0.99
0.871,-0.18,-0.91,0.46,0.14,-0.20,1.04
0.872,-0.17,-0.69,0.41,0.14,-0.20,1.04
0.874,-0.17,-0.53,0.37,0.14,-0.20,1.04
0.875,-0.17,-0.53,0.37,0.11,-0.23,1.08
0.879,-0.17,-0.53,0.37,0.10,-0.22,1.12
0.88,-0.17,-0.42,0.34,0.10,-0.22,1.12
0.885,-0.17,-0.36,0.31,0.10,-0.22,1.12
0.887,-0.17,-0.36,0.31,-0.07,-0.28,1.13
0.889,-0.17,-0.33,0.29,-0.07,-0.28,1.13
0.89,-0.17,-0.33,0.29,-0.29,-0.28,1.07
0.895,-0.17,-0.33,0.29,-0.37,-0.25,1.00
0.896,-0.17,-0.30,0.29,-0.37,-0.25,1.00
0.905,-0.17,-0.26,0.30,-0.37,-0.25,1.00
0.907,-0.17,-0.26,0.30,-0.41,-0.23,0.91
0.908,-0.17,-0.26,0.30,-0.57,-0.19,0.79
0.912,-0.17,-0.22,0.31,-0.57,-0.19,0.79
0.913,-0.17,-0.22,0.31,-0.64,-0.15,0.67
0.914,-0.17,-0.17,0.34,-0.64,-0.15,0.67
0.921,-0.18,-0.13,0.37,-0.64,-0.15,0.67
0.923,-0.18,-0.13,0.37,-0.67,-0.08,0.64
0.925,-0.18,-0.10,0.41,-0.67,-0.08,0.64
0.926,-0.18,-0.10,0.41,-0.70,-0.01,0.58
0.927,-0.18,-0.10,0.41,-0.73,0.00,0.51
0.929,-0.18,-0.09,0.44,-0.73,0.00,0.51
0.933,-0.17,-0.09,0.48,-0.73,0.00,0.51
0.935,-0.17,-0.09,0.48,-0.74,0.06,0.48
0.936,-0.17,-0.09,0.48,-0.77,0.11,0.47
0.938,-0.16,-0.10,0.51,-0.77,0.11,0.47
0.94,-0.15,-0.12,0.55,-0.77,0.11,0.47
0.941,-0.15,-0.12,0.55,-0.78,0.12,0.41
0.945,-0.13,-0.15,0.58,-0.78,0.12,0.41
0.946,-0.13,-0.15,0.58,-0.75,0.14,0.35
0.95,-0.13,-0.15,0.58,-0.67,0.14,0.31
0.951,-0.11,-0.18,0.60,-0.67,0.14,0.31
0.955,-0.11,-0.18,0.60,-0.53,0.22,0.27
0.956,-0.08,-0.20,0.63,-0.53,0.22,0.27
0.96,-0.04,-0.23,0.65,-0.53,0.22,0.27
0.961,-0.04,-0.23,0.65,-0.43,0.33,0.26
0.965,-0.00,-0.25,0.66,-0.43,0.33,0.26
0.967,-0.00,-0.25,0.66,-0.34,0.41,0.29
0.97,0.04,-0.27,0.65,-0.34,0.41,0.29
0.971,0.04,-0.27,0.65,-0.20,0.50,0.25
0.975,0.04,-0.27,0.65,-0.05,0.58,0.14
0.976,0.09,-0.29,0.64,-0.05,0.58,0.14
0.981,0.13,-0.30,0.61,-0.05,0.58,0.14
0.983,0.13,-0.30,0.61,0.11,0.64,0.04
0.985,0.16,-0.30,0.57,0.11,0.64,0.04
0.986,0.16,-0.30,0.57,0.15,0.68,-0.10
0.99,0.16,-0.30,0.57,0.10,0.70,-0.29
0.991,0.18,-0.30,0.54,0.10,0.70,-0.29
1.003,0.19,-0.30,0.51,0.10,0.70,-0.29
1.004,0.19,-0.30,0.51,0.14,0.73,-0.39
1.007,0.19,-0.31,0.51,0.14,0.73,-0.39
1.007,0.19,-0.31,0.51,0.17,0.73,-0.69
1.008,0.19,-0.31,0.51,0.35,0.71,-1.07
1.009,0.14,-0.26,0.52,0.35,0.71,-1.07
1.01,0.14,-0.26,0.52,0.43,0.65,-0.78
1.012,0.07,-0.18,0.52,0.43,0.65,-0.78
1.016,0.04,-0.16,0.50,0.43,0.65,-0.78
1.017,0.04,-0.16,0.50,0.33,0.73,-0.41
1.02,0.04,-0.13,0.49,0.33,0.73,-0.41
1.021,0.04,-0.13,0.49,0.51,0.79,-0.33
1.025,0.04,-0.06,0.48,0.51,0.79,-0.33
1.026,0.04,-0.06,0.48,0.72,0.79,-0.31
1.036,0.02,-0.02,0.46,0.72,0.79,-0.31
1.037,0.02,-0.02,0.46,0.66,0.79,-0.19
1.039,0.02,-0.06,0.44,0.66,0.79,-0.19
1.04,0.02,-0.06,0.44,0.51,0.80,-0.09
1.041,0.02,-0.06,0.44,0.53,0.91,-0.04
1.042,0.05,-0.10,0.41,0.53,0.91,-0.04
1.048,0.10,-0.10,0.38,0.53,0.91,-0.04
1.05,0.10,-0.10,0.38,0.59,0.94,-0.11
1.051,0.10,-0.10,0.38,0.58,0.93,-0.17
1.051,0.13,-0.10,0.35,0.58,0.93,-0.17
1.057,0.13,-0.12,0.32,0.58,0.93,-0.17
1.057,0.13,-0.12,0.32,0.47,0.88,-0.25
1.061,0.12,-0.15,0.28,0.47,0.88,-0.25
1.062,0.12,-0.15,0.28,0.45,0.89,-0.34
1.065,0.12,-0.15,0.28,0.44,0.85,-0.30
1.067,0.11,-0.17,0.25,0.44,0.85,-0.30
1.071,0.10,-0.16,0.22,0.44,0.85,-0.30
1.072,0.10,-0.16,0.22,0.34,0.85,-0.28
1.076,0.09,-0.15,0.20,0.34,0.85,-0.28
1.077,0.09,-0.15,0.20,0.22,0.83,-0.19
1.081,0.09,-0.15,0.20,0.21,0.78,-0.12
1.084,0.08,-0.13,0.18,0.21,0.78,-0.12
1.085,0.07,-0.12,0.16,0.21,0.78,-0.12
1.086,0.07,-0.12,0.16,0.20,0.74,0.02
1.091,0.07,-0.12,0.16,0.14,0.69,0.17
1.092,0.06,-0.11,0.14,0.14,0.69,0.17
1.096,0.06,-0.11,0.14,0.08,0.63,0.30
1.098,0.05,-0.09,0.12,0.08,0.63,0.30
1.1,0.05,-0.06,0.10,0.08,0.63,0.30
1.101,0.05,-0.06,0.10,-0.03,0.56,0.41
1.106,0.05,-0.06,0.10,-0.09,0.48,0.51
1.107,0.05,-0.04,0.09,-0.09,0.48,0.51
1.111,0.06,-0.02,0.09,-0.09,0.48,0.51
1.112,0.06,-0.02,0.09,-0.12,0.41,0.55
1.116,0.06,-0.02,0.09,-0.16,0.37,0.56
1.117,0.06,0.01,0.09,-0.16,0.37,0.56
1.121,0.06,0.01,0.09,-0.20,0.34,0.57
1.122,0.06,0.03,0.09,-0.20,0.34,0.57
1.126,0.06,0.03,0.09,-0.24,0.34,0.54
1.127,0.06,0.04,0.09,-0.24,0.34,0.54
1.131,0.07,0.05,0.09,-0.24,0.34,0.54
1.132,0.07,0.05,0.09,-0.24,0.40,0.66
1.139,0.07,0.05,0.09,-0.26,0.39,0.73
1.14,0.08,0.04,0.09,-0.26,0.39,0.73
1.141,0.09,0.03,0.09,-0.26,0.39,0.73
1.141,0.09,0.03,0.09,-0.24,0.37,0.67
1.147,0.09,0.03,0.09,-0.24,0.33,0.58
1.15,0.09,0.02,0.09,-0.24,0.33,0.58
1.151,0.09,0.02,0.09,-0.23,0.27,0.61
1.153,0.09,0.01,0.08,-0.23,0.27,0.61
1.156,0.09,0.01,0.08,-0.23,0.27,0.61
1.157,0.09,0.01,0.08,-0.27,0.19,0.63
1.161,0.09,0.01,0.08,-0.33,0.09,0.67
1.162,0.08,0.01,0.09,-0.33,0.09,0.67
1.166,0.07,0.04,0.12,-0.33,0.09,0.67
1.167,0.07,0.04,0.12,-0.38,0.02,0.67
1.171,0.06,0.09,0.15,-0.38,0.02,0.67
1.172,0.06,0.09,0.15,-0.39,-0.07,0.63
1.177,0.06,0.09,0.15,-0.41,-0.08,0.65
1.177,0.03,0.16,0.17,-0.41,-0.08,0.65
1.186,0.01,0.23,0.20,-0.41,-0.08,0.65
1.187,0.01,0.23,0.20,-0.41,-0.09,0.63
1.188,0.01,0.23,0.20,-0.48,-0.12,0.64
1.189,-0.02,0.29,0.22,-0.48,-0.12,0.64
1.191,-0.02,0.29,0.22,-0.54,-0.07,0.60
1.192,-0.05,0.35,0.25,-0.54,-0.07,0.60
1.198,-0.08,0.41,0.27,-0.54,-0.07,0.60
1.199,-0.08,0.41,0.27,-0.41,-0.11,0.46
1.201,-0.08,0.41,0.27,-0.23,-0.23,0.40
1.202,-0.12,0.48,0.29,-0.23,-0.23,0.40
1.206,-0.12,0.48,0.29,-0.32,-0.09,0.47
1.207,-0.15,0.54,0.30,-0.32,-0.09,0.47
1.214,-0.18,0.59,0.31,-0.32,-0.09,0.47
1.216,-0.18,0.59,0.31,-0.60,0.03,0.45
1.217,-0.18,0.59,0.31,-0.81,0.06,0.30
1.218,-0.20,0.60,0.34,-0.81,0.06,0.30
1.222,-0.22,0.58,0.39,-0.81,0.06,0.30
1.222,-0.22,0.58,0.39,-0.83,0.13,0.23
1.227,-0.23,0.59,0.41,-0.83,0.13,0.23
1.228,-0.23,0.59,0.41,-0.62,0.28,0.21
1.231,-0.23,0.59,0.41,-0.47,0.40,0.47
1.233,-0.23,0.66,0.41,-0.47,0.40,0.47
1.237,-0.22,0.70,0.40,-0.47,0.40,0.47
1.237,-0.22,0.70,0.40,-0.33,0.52,0.69
1.242,-0.19,0.70,0.39,-0.33,0.52,0.69
1.242,-0.19,0.70,0.39,-0.35,0.64,0.70
1.255,-0.19,0.70,0.39,-0.36,0.68,0.68
1.256,-0.17,0.65,0.39,-0.36,0.68,0.68
1.258,-0.17,0.65,0.39,-0.40,0.63,0.65
1.259,-0.15,0.59,0.39,-0.40,0.63,0.65
1.26,-0.15,0.59,0.39,-0.30,0.59,0.53
1.261,-0.12,0.54,0.38,-0.30,0.59,0.53
1.264,-0.07,0.51,0.36,-0.30,0.59,0.53
1.267,-0.07,0.51,0.36,-0.09,0.62,0.46
1.268,-0.02,0.46,0.34,-0.09,0.62,0.46
1.269,-0.02,0.46,0.34,-0.03,0.70,0.40
1.272,0.02,0.39,0.32,-0.03,0.70,0.40
1.273,0.02,0.39,0.32,-0.06,0.75,0.38
1.277,0.06,0.31,0.30,-0.06,0.75,0.38
1.278,0.06,0.31,0.30,-0.08,0.80,0.14
1.282,0.10,0.23,0.29,-0.08,0.80,0.14
1.283,0.10,0.23,0.29,-0.09,0.76,0.01
1.287,0.12,0.16,0.28,-0.09,0.76,0.01
1.288,0.12,0.16,0.28,-0.01,0.74,-0.14
1.292,0.12,0.16,0.28,0.04,0.74,-0.20
1.293,0.14,0.08,0.27,0.04,0.74,-0.20
1.304,0.16,-0.00,0.25,0.04,0.74,-0.20
1.305,0.16,-0.00,0.25,0.15,0.75,-0.18
1.306,0.17,-0.08,0.22,0.15,0.75,-0.18
1.307,0.17,-0.08,0.22,0.28,0.72,-0.18
1.308,0.17,-0.08,0.22,0.46,0.68,-0.12
1.309,0.19,-0.15,0.19,0.46,0.68,-0.12
1.314,0.19,-0.15,0.19,0.63,0.62,0.01
1.317,0.21,-0.19,0.16,0.63,0.62,0.01
1.318,0.21,-0.19,0.16,0.81,0.51,0.15
1.319,0.23,-0.20,0.12,0.81,0.51,0.15
1.323,0.24,-0.20,0.07,0.81,0.51,0.15
1.325,0.24,-0.20,0.07,0.99,0.37,0.21
1.328,0.24,-0.20,0.07,1.05,0.27,0.10
1.329,0.23,-0.21,0.02,1.05,0.27,0.10
1.332,0.20,-0.24,-0.04,1.05,0.27,0.10
1.334,0.20,-0.24,-0.04,1.02,0.16,-0.13
1.338,0.16,-0.29,-0.09,1.02,0.16,-0.13
1.338,0.16,-0.29,-0.09,0.91,0.06,-0.24
1.343,0.10,-0.33,-0.13,0.91,0.06,-0.24
1.344,0.10,-0.33,-0.13,0.84,-0.02,-0.09
1.348,0.04,-0.37,-0.17,0.84,-0.02,-0.09
1.349,0.04,-0.37,-0.17,0.79,-0.09,0.24
1.353,0.04,-0.37,-0.17,0.79,-0.15,0.55
1.354,-0.00,-0.39,-0.21,0.79,-0.15,0.55
1.358,-0.04,-0.43,-0.24,0.79,-0.15,0.55
1.358,-0.04,-0.43,-0.24,0.82,-0.24,0.78
1.364,-0.04,-0.43,-0.24,0.77,-0.29,0.95
1.366,-0.07,-0.46,-0.28,0.77,-0.29,0.95
1.368,-0.09,-0.47,-0.32,0.77,-0.29,0.95
1.368,-0.09,-0.47,-0.32,0.59,-0.29,1.13
1.373,-0.09,-0.47,-0.32,0.37,-0.32,1.38
1.374,-0.10,-0.48,-0.35,0.37,-0.32,1.38
1.378,-0.10,-0.48,-0.35,0.13,-0.38,1.66
1.38,-0.11,-0.49,-0.37,0.13,-0.38,1.66
1.383,-0.10,-0.50,-0.37,0.13,-0.38,1.66
1.384,-0.10,-0.50,-0.37,-0.07,-0.38,1.87
1.388,-0.09,-0.51,-0.37,-0.07,-0.38,1.87
1.389,-0.09,-0.51,-0.37,-0.30,-0.38,2.03
1.394,-0.09,-0.51,-0.37,-0.53,-0.40,2.12
1.396,-0.06,-0.50,-0.35,-0.53,-0.40,2.12
1.4,-0.03,-0.48,-0.33,-0.53,-0.40,2.12
1.402,-0.03,-0.48,-0.33,-0.71,-0.33,2.08
1.404,0.01,-0.44,-0.30,-0.71,-0.33,2.08
1.405,0.01,-0.44,-0.30,-0.90,-0.32,1.99
1.408,0.01,-0.44,-0.30,-1.12,-0.32,1.83
1.409,0.04,-0.39,-0.26,-1.12,-0.32,1.83
1.415,0.04,-0.39,-0.26,-1.29,-0.29,1.61
1.418,0.08,-0.33,-0.21,-1.29,-0.29,1.61
1.419,0.11,-0.26,-0.16,-1.29,-0.29,1.61
1.42,0.11,-0.26,-0.16,-1.36,-0.29,1.42
1.424,0.14,-0.18,-0.10,-1.36,-0.29,1.42
1.425,0.14,-0.18,-0.10,-1.42,-0.27,1.18
1.43,0.16,-0.11,-0.04,-1.42,-0.27,1.18
1.432,0.16,-0.11,-0.04,-1.43,-0.22,0.92
1.435,0.16,-0.11,-0.04,-1.42,-0.20,0.60
1.436,0.18,-0.05,0.02,-1.42,-0.20,0.60
1.438,0.21,0.01,0.09,-1.42,-0.20,0.60
1.439,0.21,0.01,0.09,-1.44,-0.17,0.31
1.443,0.23,0.05,0.15,-1.44,-0.17,0.31
1.444,0.23,0.05,0.15,-1.40,-0.12,0.07
1.454,0.23,0.05,0.15,-1.29,-0.03,-0.10
1.456,0.25,0.07,0.20,-1.29,-0.03,-0.10
1.457,0.28,0.06,0.26,-1.29,-0.03,-0.10
1.458,0.28,0.06,0.26,-1.22,-0.01,-0.25
1.46,0.31,0.04,0.31,-1.22,-0.01,-0.25
1.461,0.31,0.04,0.31,-1.11,0.07,-0.43
1.469,0.31,0.04,0.31,-0.91,0.12,-0.54
1.471,0.35,0.00,0.36,-0.91,0.12,-0.54
1.472,0.39,-0.05,0.39,-0.91,0.12,-0.54
1.473,0.39,-0.05,0.39,-0.69,0.19,-0.70
1.474,0.39,-0.05,0.39,-0.50,0.25,-0.93
1.475,0.44,-0.11,0.42,-0.50,0.25,-0.93
1.482,0.48,-0.18,0.43,-0.50,0.25,-0.93
1.484,0.48,-0.18,0.43,-0.24,0.28,-1.13
1.485,0.48,-0.18,0.43,-0.05,0.30,-1.36
1.486,0.51,-0.25,0.44,-0.05,0.30,-1.36
1.489,0.51,-0.25,0.44,0.18,0.33,-1.56
1.49,0.53,-0.33,0.43,0.18,0.33,-1.56
1.494,0.53,-0.33,0.43,0.39,0.36,-1.75
1.495,0.54,-0.41,0.41,0.39,0.36,-1.75
1.509,0.53,-0.50,0.38,0.39,0.36,-1.75
1.511,0.53,-0.50,0.38,0.61,0.33,-1.85
1.513,0.52,-0.58,0.34,0.61,0.33,-1.85
1.514,0.52,-0.58,0.34,0.81,0.39,-1.95
1.516,0.49,-0.65,0.29,0.81,0.39,-1.95
1.517,0.49,-0.65,0.29,0.93,0.39,-2.05
1.517,0.45,-0.70,0.24,0.93,0.39,-2.05
1.519,0.45,-0.70,0.24,1.05,0.33,-2.06
1.52,0.41,-0.74,0.19,1.05,0.33,-2.06
1.52,0.41,-0.74,0.19,1.14,0.33,-1.96
1.524,0.37,-0.76,0.13,1.14,0.33,-1.96
1.526,0.37,-0.76,0.13,1.21,0.31,-1.78
1.531,0.33,-0.77,0.07,1.21,0.31,-1.78
1.532,0.33,-0.77,0.07,1.26,0.27,-1.64
1.534,0.28,-0.78,0.01,1.26,0.27,-1.64
1.535,0.28,-0.78,0.01,1.23,0.25,-1.48
1.539,0.24,-0.79,-0.04,1.23,0.25,-1.48
1.54,0.24,-0.79,-0.04,1.20,0.27,-1.22
1.544,0.20,-0.78,-0.11,1.20,0.27,-1.22
1.545,0.20,-0.78,-0.11,1.21,0.29,-0.99
1.549,0.17,-0.77,-0.17,1.21,0.29,-0.99
1.55,0.17,-0.77,-0.17,1.08,0.29,-0.80
1.554,0.17,-0.77,-0.17,0.92,0.28,-0.58
1.555,0.14,-0.74,-0.22,0.92,0.28,-0.58
1.559,0.14,-0.74,-0.22,0.87,0.21,-0.30
1.56,0.12,-0.71,-0.27,0.87,0.21,-0.30
1.564,0.11,-0.67,-0.32,0.87,0.21,-0.30
1.565,0.11,-0.67,-0.32,0.80,0.11,-0.17
1.569,0.09,-0.63,-0.37,0.80,0.11,-0.17
1.57,0.09,-0.63,-0.37,0.64,-0.00,-0.03
1.574,0.09,-0.63,-0.37,0.51,-0.07,0.12
1.575,0.08,-0.60,-0.40,0.51,-0.07,0.12
1.587,0.07,-0.56,-0.43,0.51,-0.07,0.12
1.589,0.07,-0.56,-0.43,0.45,-0.08,0.35
1.59,0.07,-0.51,-0.46,0.45,-0.08,0.35
1.591,0.07,-0.51,-0.46,0.44,-0.14,0.49
1.592,0.08,-0.45,-0.48,0.44,-0.14,0.49
1.593,0.08,-0.45,-0.48,0.37,-0.24,0.56
1.6,0.08,-0.45,-0.48,0.25,-0.35,0.54
1.601,0.09,-0.39,-0.50,0.25,-0.35,0.54
1.602,0.09,-0.39,-0.50,0.19,-0.45,0.54
1.603,0.09,-0.32,-0.52,0.19,-0.45,0.54
1.605,0.09,-0.32,-0.52,0.13,-0.50,0.51
1.606,0.10,-0.26,-0.52,0.13,-0.50,0.51
1.609,0.10,-0.20,-0.52,0.13,-0.50,0.51
1.61,0.10,-0.20,-0.52,0.11,-0.60,0.39
1.619,0.10,-0.20,-0.52,0.11,-0.68,0.33
1.621,0.11,-0.15,-0.52,0.11,-0.68,0.33
1.621,0.11,-0.15,-0.52,0.11,-0.79,0.29
1.622,0.11,-0.11,-0.52,0.11,-0.79,0.29
1.625,0.11,-0.08,-0.51,0.11,-0.79,0.29
1.626,0.11,-0.08,-0.51,0.06,-0.89,0.20
1.632,0.11,-0.08,-0.51,0.12,-1.01,0.19
1.634,0.11,-0.07,-0.50,0.12,-1.01,0.19
1.637,0.11,-0.07,-0.50,0.17,-1.08,0.17
1.638,0.10,-0.05,-0.50,0.17,-1.08,0.17
1.639,0.10,-0.05,-0.49,0.17,-1.08,0.17
1.64,0.10,-0.05,-0.49,0.21,-1.12,0.18
1.645,0.11,-0.05,-0.48,0.21,-1.12,0.18
1.646,0.11,-0.05,-0.48,0.27,-1.20,0.20
1.65,0.11,-0.05,-0.48,0.29,-1.26,0.17
1.652,0.12,-0.05,-0.46,0.29,-1.26,0.17
1.655,0.12,-0.06,-0.45,0.29,-1.26,0.17
1.655,0.12,-0.06,-0.45,0.33,-1.29,0.15
1.66,0.13,-0.07,-0.43,0.33,-1.29,0.15
1.661,0.13,-0.07,-0.43,0.36,-1.33,0.12
1.666,0.14,-0.08,-0.41,0.36,-1.33,0.12
1.668,0.14,-0.08,-0.41,0.36,-1.33,0.05
1.67,0.14,-0.10,-0.40,0.36,-1.33,0.05
1.671,0.14,-0.10,-0.40,0.40,-1.34,0.01
1.675,0.14,-0.10,-0.40,0.48,-1.29,-0.03
1.676,0.15,-0.11,-0.38,0.48,-1.29,-0.03
1.68,0.15,-0.13,-0.38,0.48,-1.29,-0.03
1.682,0.15,-0.13,-0.38,0.57,-1.27,-0.14
1.685,0.16,-0.14,-0.38,0.57,-1.27,-0.14
1.686,0.16,-0.14,-0.38,0.58,-1.25,-0.21
1.69,0.15,-0.15,-0.37,0.58,-1.25,-0.21
1.691,0.15,-0.15,-0.37,0.59,-1.20,-0.28
1.697,0.15,-0.16,-0.38,0.59,-1.20,-0.28
1.7,0.15,-0.16,-0.38,0.62,-1.14,-0.39
1.701,0.14,-0.16,-0.38,0.62,-1.14,-0.39
1.702,0.14,-0.16,-0.38,0.67,-1.11,-0.52
1.705,0.14,-0.16,-0.38,0.61,-1.10,-0.62
1.707,0.12,-0.15,-0.39,0.61,-1.10,-0.62
1.71,0.12,-0.15,-0.39,0.62,-1.10,-0.64
1.711,0.11,-0.15,-0.40,0.62,-1.10,-0.64
1.722,0.11,-0.15,-0.40,0.54,-1.09,-0.69
1.725,0.09,-0.15,-0.40,0.54,-1.09,-0.69
1.726,0.09,-0.15,-0.40,0.41,-1.09,-0.75
1.727,0.07,-0.14,-0.40,0.41,-1.09,-0.75
1.728,0.07,-0.14,-0.40,0.40,-1.08,-0.68
1.729,0.05,-0.12,-0.40,0.40,-1.08,-0.68
1.74,0.05,-0.12,-0.40,0.36,-1.03,-0.63
1.742,0.03,-0.11,-0.40,0.36,-1.03,-0.63
1.743,0.03,-0.11,-0.40,0.31,-1.01,-0.62
1.744,0.02,-0.10,-0.40,0.31,-1.01,-0.62
1.745,0.02,-0.10,-0.40,0.20,-0.99,-0.62
1.746,0.01,-0.09,-0.39,0.20,-0.99,-0.62
1.747,0.01,-0.09,-0.39,0.09,-0.99,-0.66
1.748,0.01,-0.06,-0.37,0.09,-0.99,-0.66
1.76,-0.00,-0.04,-0.35,0.09,-0.99,-0.66
1.765,-0.00,-0.04,-0.35,-0.00,-0.94,-0.65
1.766,-0.00,-0.04,-0.35,-0.06,-0.90,-0.61
1.767,-0.01,-0.01,-0.32,-0.06,-0.90,-0.61
1.768,-0.01,-0.01,-0.32,-0.11,-0.87,-0.65
1.769,-0.01,0.01,-0.30,-0.11,-0.87,-0.65
1.77,-0.01,0.04,-0.27,-0.11,-0.87,-0.65
1.772,-0.01,0.04,-0.27,-0.17,-0.84,-0.62
1.773,-0.01,0.05,-0.24,-0.17,-0.84,-0.62
1.774,-0.01,0.05,-0.24,-0.27,-0.80,-0.58
1.78,-0.01,0.06,-0.21,-0.27,-0.80,-0.58
1.782,-0.01,0.06,-0.21,-0.23,-0.70,-0.60
1.784,0.01,0.08,-0.18,-0.23,-0.70,-0.60
1.785,0.01,0.08,-0.18,-0.19,-0.61,-0.58
1.786,0.02,0.10,-0.15,-0.19,-0.61,-0.58
1.787,0.02,0.10,-0.15,-0.19,-0.54,-0.67
1.791,0.02,0.10,-0.15,-0.18,-0.47,-0.76
1.792,0.03,0.12,-0.13,-0.18,-0.47,-0.76
1.797,0.03,0.12,-0.13,-0.17,-0.41,-0.95
1.798,0.04,0.14,-0.11,-0.17,-0.41,-0.95
1.801,0.04,0.16,-0.09,-0.17,-0.41,-0.95
1.802,0.04,0.16,-0.09,-0.14,-0.36,-1.12
1.805,0.04,0.16,-0.09,-0.11,-0.30,-1.23
1.806,0.03,0.16,-0.08,-0.11,-0.30,-1.23
1.811,0.03,0.16,-0.08,-0.12,-0.25,-1.42
1.811,0.01,0.16,-0.07,-0.12,-0.25,-1.42
1.816,0.01,0.16,-0.07,-0.09,-0.22,-1.53
1.817,-0.01,0.15,-0.07,-0.09,-0.22,-1.53
1.821,-0.01,0.15,-0.07,-0.07,-0.19,-1.58
1.821,-0.03,0.15,-0.07,-0.07,-0.19,-1.58
1.828,-0.03,0.15,-0.07,-0.06,-0.16,-1.53
1.829,-0.06,0.14,-0.06,-0.06,-0.16,-1.53
1.832,-0.06,0.14,-0.06,-0.04,-0.14,-1.48
1.834,-0.08,0.13,-0.07,-0.04,-0.14,-1.48
1.836,-0.08,0.13,-0.07,-0.07,-0.12,-1.38
1.837,-0.10,0.10,-0.07,-0.07,-0.12,-1.38
1.841,-0.10,0.10,-0.07,-0.08,-0.09,-1.30
1.842,-0.11,0.08,-0.07,-0.08,-0.09,-1.30
1.852,-0.12,0.05,-0.07,-0.08,-0.09,-1.30
1.853,-0.12,0.05,-0.07,-0.14,-0.08,-1.21
1.854,-0.13,0.02,-0.06,-0.14,-0.08,-1.21
1.855,-0.13,0.02,-0.06,-0.18,-0.09,-1.09
1.856,-0.13,0.02,-0.06,-0.21,-0.05,-0.97
1.861,-0.14,-0.01,-0.06,-0.21,-0.05,-0.97
1.862,-0.14,-0.04,-0.05,-0.21,-0.05,-0.97
1.863,-0.14,-0.04,-0.05,-0.20,-0.05,-0.79
1.868,-0.14,-0.04,-0.05,-0.21,-0.05,-0.58
1.87,-0.14,-0.07,-0.04,-0.21,-0.05,-0.58
1.872,-0.14,-0.07,-0.04,-0.20,-0.04,-0.47
1.873,-0.13,-0.09,-0.03,-0.20,-0.04,-0.47
1.876,-0.13,-0.09,-0.03,-0.26,-0.04,-0.32
1.877,-0.13,-0.10,-0.02,-0.26,-0.04,-0.32
1.881,-0.13,-0.10,-0.02,-0.33,-0.06,-0.17
1.882,-0.12,-0.10,-0.00,-0.33,-0.06,-0.17
1.886,-0.12,-0.10,-0.00,-0.23,-0.07,-0.11
1.887,-0.11,-0.11,0.02,-0.23,-0.07,-0.11
1.891,-0.11,-0.11,0.02,-0.19,-0.03,0.63
1.892,-0.11,-0.12,0.03,-0.19,-0.03,0.63
1.897,-0.11,-0.12,0.03,-0.71,0.03,0.29
1.899,-0.07,-0.15,0.05,-0.71,0.03,0.29
1.901,-0.05,-0.13,0.07,-0.71,0.03,0.29
1.902,-0.05,-0.13,0.07,-0.01,-0.03,1.11
1.906,-0.05,-0.13,0.07,-0.30,0.04,0.72
1.907,-0.00,-0.13,0.09,-0.30,0.04,0.72
1.913,0.03,-0.11,0.10,-0.30,0.04,0.72
1.915,0.03,-0.11,0.10,-0.35,0.06,0.91
1.916,0.03,-0.11,0.10,-0.41,0.11,0.95
1.917,0.07,-0.09,0.12,-0.41,0.11,0.95
1.921,0.10,-0.06,0.14,-0.41,0.11,0.95
1.922,0.10,-0.06,0.14,-0.47,0.12,1.03
1.926,0.10,-0.06,0.14,-0.50,0.13,1.00
1.927,0.14,-0.04,0.16,-0.50,0.13,1.00
1.932,0.14,-0.04,0.16,-0.63,0.16,0.76
1.933,0.16,-0.01,0.18,-0.63,0.16,0.76
1.937,0.18,0.02,0.19,-0.63,0.16,0.76
1.937,0.18,0.02,0.19,-0.58,0.19,0.52
1.942,0.18,0.02,0.19,-0.35,0.20,0.36
1.942,0.19,0.07,0.21,-0.35,0.20,0.36
1.947,0.19,0.07,0.21,-0.13,0.20,0.37
1.948,0.19,0.11,0.22,-0.13,0.20,0.37
1.951,0.19,0.13,0.23,-0.13,0.20,0.37
1.952,0.19,0.13,0.23,-0.16,0.24,0.32
1.957,0.19,0.13,0.23,-0.37,0.29,0.19
1.957,0.20,0.17,0.23,-0.37,0.29,0.19
1.964,0.19,0.19,0.23,-0.37,0.29,0.19
1.966,0.19,0.19,0.23,-0.45,0.34,-0.05
1.967,0.19,0.21,0.23,-0.45,0.34,-0.05
1.968,0.19,0.21,0.23,-0.27,0.36,-0.20
1.972,0.19,0.21,0.23,0.01,0.37,-0.12
1.972,0.18,0.22,0.23,0.01,0.37,-0.12
1.977,0.18,0.22,0.23,0.07,0.37,-0.09
1.978,0.17,0.23,0.22,0.07,0.37,-0.09
1.987,0.16,0.22,0.22,0.07,0.37,-0.09
1.99,0.16,0.22,0.22,-0.05,0.40,-0.13
1.993,0.16,0.22,0.22,-0.20,0.41,-0.28
1.994,0.17,0.23,0.22,-0.20,0.41,-0.28
1.996,0.16,0.22,0.21,-0.20,0.41,-0.28
1.997,0.16,0.22,0.21,-0.18,0.45,-0.40
1.998,0.16,0.22,0.21,0.01,0.45,-0.35
1.999,0.16,0.20,0.20,0.01,0.45,-0.35
2.014,0.17,0.20,0.19,0.01,0.45,-0.35
2.017,0.17,0.20,0.19,0.20,0.41,-0.26
2.018,0.17,0.20,0.18,0.20,0.41,-0.26
2.019,0.17,0.20,0.18,0.15,0.40,-0.23
2.02,0.17,0.20,0.18,-0.04,0.41,-0.32
2.021,0.17,0.19,0.18,-0.04,0.41,-0.32
2.022,0.17,0.19,0.18,-0.15,0.43,-0.50
2.023,0.17,0.18,0.17,-0.15,0.43,-0.50
2.024,0.17,0.18,0.17,-0.10,0.44,-0.63
2.025,0.16,0.16,0.16,-0.10,0.44,-0.63
2.027,0.16,0.16,0.16,0.03,0.42,-0.68
2.029,0.15,0.17,0.15,0.03,0.42,-0.68
2.035,0.15,0.17,0.15,0.14,0.38,-0.66
2.036,0.14,0.18,0.14,0.14,0.38,-0.66
2.037,0.14,0.18,0.14,0.09,0.41,-0.54
2.038,0.13,0.18,0.14,0.09,0.41,-0.54
2.042,0.13,0.18,0.14,-0.13,0.43,-0.61
2.043,0.12,0.20,0.13,-0.13,0.43,-0.61
2.048,0.12,0.20,0.13,-0.26,0.45,-0.71
2.049,0.10,0.19,0.13,-0.26,0.45,-0.71
2.052,0.10,0.19,0.13,-0.27,0.42,-0.83
2.053,0.09,0.20,0.12,-0.27,0.42,-0.83
2.057,0.09,0.20,0.12,-0.14,0.41,-0.79
2.058,0.08,0.19,0.12,-0.14,0.41,-0.79
2.064,0.08,0.19,0.12,-0.08,0.42,-0.60
2.065,0.07,0.19,0.12,-0.08,0.42,-0.60
2.067,0.07,0.19,0.12,-0.12,0.42,-0.47
2.068,0.07,0.19,0.12,-0.12,0.42,-0.47
2.074,0.07,0.18,0.12,-0.12,0.42,-0.47
2.075,0.07,0.18,0.12,-0.28,0.43,-0.42
2.082,0.07,0.18,0.12,-0.47,0.44,-0.47
2.083,0.08,0.17,0.13,-0.47,0.44,-0.47
2.084,0.08,0.17,0.13,-0.59,0.41,-0.55
2.085,0.08,0.16,0.14,-0.59,0.41,-0.55
2.089,0.09,0.16,0.15,-0.59,0.41,-0.55
2.089,0.09,0.16,0.15,-0.52,0.34,-0.62
2.093,0.09,0.15,0.16,-0.52,0.34,-0.62
2.094,0.09,0.15,0.16,-0.35,0.34,-0.53
2.098,0.09,0.15,0.16,-0.28,0.33,-0.43
2.1,0.10,0.14,0.18,-0.28,0.33,-0.43
2.104,0.10,0.13,0.19,-0.28,0.33,-0.43
2.104,0.10,0.13,0.19,-0.35,0.32,-0.34
2.108,0.11,0.13,0.21,-0.35,0.32,-0.34
2.109,0.11,0.13,0.21,-0.48,0.37,-0.36
2.122,0.12,0.13,0.22,-0.48,0.37,-0.36
2.123,0.12,0.13,0.22,-0.57,0.37,-0.47
2.124,0.12,0.13,0.22,-0.54,0.42,-0.53
2.125,0.12,0.11,0.23,-0.54,0.42,-0.53
2.126,0.13,0.11,0.25,-0.54,0.42,-0.53
2.126,0.13,0.11,0.25,-0.42,0.40,-0.63
2.13,0.13,0.11,0.25,-0.30,0.42,-0.47
2.131,0.14,0.10,0.26,-0.30,0.42,-0.47
2.135,0.14,0.08,0.28,-0.30,0.42,-0.47
2.137,0.14,0.08,0.28,-0.21,0.44,-0.35
2.138,0.16,0.09,0.29,-0.21,0.44,-0.35
2.139,0.16,0.09,0.29,-0.26,0.42,-0.30
2.143,0.17,0.07,0.30,-0.26,0.42,-0.30
2.144,0.17,0.07,0.30,-0.39,0.41,-0.42
2.148,0.17,0.05,0.31,-0.39,0.41,-0.42
2.15,0.17,0.05,0.31,-0.44,0.42,-0.53
2.153,0.17,0.05,0.32,-0.44,0.42,-0.53
2.154,0.17,0.05,0.32,-0.33,0.44,-0.60
2.158,0.17,0.05,0.32,-0.14,0.45,-0.63
2.159,0.17,0.05,0.33,-0.14,0.45,-0.63
2.164,0.17,0.05,0.33,0.00,0.45,-0.55
2.166,0.17,0.06,0.33,0.00,0.45,-0.55
2.168,0.18,0.08,0.33,0.00,0.45,-0.55
2.169,0.18,0.08,0.33,0.05,0.47,-0.51
2.173,0.18,0.09,0.33,0.05,0.47,-0.51
2.174,0.18,0.09,0.33,-0.01,0.46,-0.55
2.18,0.17,0.09,0.34,-0.01,0.46,-0.55
2.182,0.17,0.09,0.34,-0.09,0.50,-0.61
2.183,0.17,0.11,0.34,-0.09,0.50,-0.61
2.184,0.17,0.11,0.34,-0.18,0.50,-0.75
2.189,0.16,0.11,0.33,-0.18,0.50,-0.75
2.189,0.16,0.11,0.33,-0.16,0.48,-0.82
2.194,0.14,0.12,0.33,-0.16,0.48,-0.82
2.195,0.14,0.12,0.33,-0.03,0.49,-0.91
2.202,0.13,0.12,0.32,-0.03,0.49,-0.91
2.203,0.13,0.12,0.32,0.19,0.48,-0.79
2.204,0.11,0.10,0.31,0.19,0.48,-0.79
2.205,0.11,0.10,0.31,0.31,0.44,-0.64
2.209,0.11,0.10,0.31,0.31,0.38,-0.61
2.21,0.10,0.10,0.29,0.31,0.38,-0.61
2.214,0.10,0.10,0.29,0.24,0.32,-0.55
2.216,0.09,0.07,0.28,0.24,0.32,-0.55
2.219,0.09,0.07,0.28,0.16,0.20,-0.63
2.22,0.08,0.06,0.26,0.16,0.20,-0.63
2.224,0.08,0.06,0.26,0.14,0.09,-0.70
2.225,0.06,0.04,0.25,0.14,0.09,-0.70
2.23,0.04,0.00,0.24,0.14,0.09,-0.70
2.232,0.04,0.00,0.24,0.22,-0.02,-0.67
2.234,0.01,-0.02,0.23,0.22,-0.02,-0.67
2.235,0.01,-0.02,0.23,0.33,-0.09,-0.27
2.239,-0.01,-0.04,0.23,0.33,-0.09,-0.27
2.24,-0.01,-0.04,0.23,0.40,-0.25,-0.66
2.244,-0.04,-0.07,0.22,0.40,-0.25,-0.66
2.245,-0.04,-0.07,0.22,-0.19,-0.29,0.22
2.256,-0.04,-0.07,0.22,0.31,-0.38,-0.41
2.257,-0.05,-0.09,0.24,0.31,-0.38,-0.41
2.273,-0.08,-0.10,0.24,0.31,-0.38,-0.41
2.274,-0.08,-0.10,0.24,0.06,-0.30,0.65
2.274,-0.08,-0.10,0.24,-0.44,-0.22,0.62
2.275,-0.07,-0.13,0.25,-0.44,-0.22,0.62
2.276,-0.07,-0.13,0.28,-0.44,-0.22,0.62
2.277,-0.07,-0.13,0.28,0.07,-0.40,0.38
2.277,-0.08,-0.11,0.28,0.07,-0.40,0.38
2.281,-0.08,-0.11,0.28,-0.10,-0.32,0.87
2.282,-0.07,-0.11,0.29,-0.10,-0.32,0.87
2.283,-0.07,-0.11,0.29,-0.35,-0.21,1.14
2.284,-0.07,-0.11,0.29,-0.25,-0.17,1.09
2.285,-0.06,-0.10,0.31,-0.25,-0.17,1.09
2.286,-0.05,-0.09,0.33,-0.25,-0.17,1.09
2.287,-0.05,-0.09,0.33,-0.23,-0.22,1.03
2.29,-0.05,-0.09,0.33,-0.22,-0.19,1.03
2.292,-0.04,-0.07,0.34,-0.22,-0.19,1.03
2.298,-0.04,-0.04,0.35,-0.22,-0.19,1.03
2.299,-0.04,-0.04,0.35,-0.16,-0.18,0.98
2.3,-0.04,-0.04,0.35,-0.12,-0.13,0.97
2.301,-0.05,-0.01,0.35,-0.12,-0.13,0.97
2.305,-0.05,-0.01,0.35,-0.11,-0.07,1.01
2.306,-0.05,0.01,0.36,-0.11,-0.07,1.01
2.31,-0.05,0.04,0.37,-0.11,-0.07,1.01
2.311,-0.05,0.04,0.37,-0.01,-0.08,1.01
2.316,-0.05,0.04,0.37,-0.00,-0.01,0.98
2.317,-0.04,0.07,0.37,-0.00,-0.01,0.98
2.32,-0.04,0.07,0.37,0.01,0.05,0.94
2.321,-0.03,0.09,0.37,0.01,0.05,0.94
2.325,-0.03,0.09,0.37,-0.01,0.10,0.88
2.326,-0.02,0.11,0.36,-0.01,0.10,0.88
2.33,-0.00,0.12,0.36,-0.01,0.10,0.88
2.332,-0.00,0.12,0.36,0.03,0.14,0.81
2.335,0.01,0.13,0.35,0.03,0.14,0.81
2.336,0.01,0.13,0.35,0.06,0.16,0.75
2.34,0.01,0.13,0.35,0.09,0.18,0.66
2.341,0.02,0.13,0.34,0.09,0.18,0.66
2.346,0.03,0.14,0.32,0.09,0.18,0.66
2.348,0.03,0.14,0.32,0.07,0.22,0.58
2.35,0.04,0.15,0.31,0.07,0.22,0.58
2.351,0.04,0.15,0.31,0.05,0.18,0.51
2.355,0.05,0.17,0.30,0.05,0.18,0.51
2.356,0.05,0.17,0.30,0.08,0.20,0.42
2.36,0.05,0.17,0.30,0.07,0.22,0.37
2.361,0.05,0.18,0.28,0.07,0.22,0.37
2.366,0.06,0.20,0.27,0.07,0.22,0.37
2.367,0.06,0.20,0.27,0.05,0.22,0.34
2.37,0.07,0.23,0.25,0.05,0.22,0.34
2.371,0.07,0.23,0.25,0.05,0.21,0.27
2.375,0.08,0.26,0.24,0.05,0.21,0.27
2.376,0.08,0.26,0.24,0.03,0.17,0.16
2.387,0.08,0.26,0.24,-0.01,0.15,0.04
2.389,0.09,0.29,0.23,-0.01,0.15,0.04
2.39,0.09,0.32,0.22,-0.01,0.15,0.04
2.391,0.09,0.32,0.22,-0.06,0.12,-0.09
2.394,0.10,0.35,0.22,-0.06,0.12,-0.09
2.404,0.10,0.35,0.22,-0.09,0.10,-0.23
2.406,0.10,0.37,0.21,-0.09,0.10,-0.23
2.407,0.10,0.37,0.21,-0.16,0.09,-0.31
2.408,0.10,0.37,0.21,-0.15,0.04,-0.38
2.409,0.11,0.39,0.22,-0.15,0.04,-0.38
2.41,0.11,0.39,0.22,-0.15,-0.00,-0.46
2.411,0.12,0.41,0.22,-0.15,-0.00,-0.46
2.412,0.12,0.41,0.22,-0.16,-0.05,-0.50
2.414,0.13,0.42,0.23,-0.16,-0.05,-0.50
2.418,0.14,0.42,0.24,-0.16,-0.05,-0.50
2.42,0.14,0.42,0.24,-0.21,-0.04,-0.59
2.421,0.14,0.42,0.24,-0.24,-0.11,-0.67
2.422,0.15,0.42,0.25,-0.24,-0.11,-0.67
2.425,0.17,0.42,0.26,-0.24,-0.11,-0.67
2.426,0.17,0.42,0.26,-0.27,-0.21,-0.82
2.431,0.18,0.41,0.28,-0.27,-0.21,-0.82
2.434,0.18,0.41,0.28,-0.27,-0.29,-0.99
2.435,0.18,0.39,0.31,-0.27,-0.29,-0.99
2.436,0.18,0.39,0.31,-0.25,-0.35,-1.10
2.441,0.18,0.39,0.31,-0.19,-0.45,-1.18
2.442,0.19,0.35,0.33,-0.19,-0.45,-1.18
2.447,0.19,0.31,0.35,-0.19,-0.45,-1.18
2.449,0.19,0.31,0.35,-0.14,-0.52,-1.26
2.451,0.19,0.25,0.38,-0.14,-0.52,-1.26
2.452,0.19,0.25,0.38,-0.08,-0.62,-1.28
2.456,0.19,0.25,0.38,0.01,-0.70,-1.29
2.457,0.18,0.19,0.41,0.01,-0.70,-1.29
2.461,0.18,0.12,0.44,0.01,-0.70,-1.29
2.462,0.18,0.12,0.44,0.09,-0.76,-1.22
2.467,0.18,0.12,0.44,0.14,-0.76,-1.09
2.47,0.17,0.04,0.46,0.14,-0.76,-1.09
2.471,0.17,-0.06,0.49,0.14,-0.76,-1.09
2.473,0.17,-0.06,0.49,0.18,-0.76,-0.90
2.476,0.17,-0.17,0.51,0.18,-0.76,-0.90
2.478,0.17,-0.17,0.51,0.31,-0.83,-0.86
2.483,0.17,-0.24,0.52,0.31,-0.83,-0.86
2.486,0.17,-0.24,0.52,0.44,-0.97,-0.75
2.487,0.18,-0.30,0.52,0.44,-0.97,-0.75
2.488,0.18,-0.30,0.52,0.45,-0.94,-0.45
2.491,0.19,-0.35,0.54,0.45,-0.94,-0.45
2.492,0.19,-0.35,0.54,0.50,-0.84,-0.70
2.497,0.17,-0.42,0.54,0.50,-0.84,-0.70
2.498,0.17,-0.42,0.54,0.78,-0.82,0.21
2.501,0.17,-0.42,0.54,0.36,-0.78,-0.46
2.502,0.17,-0.49,0.56,0.36,-0.78,-0.46
2.515,0.15,-0.53,0.56,0.36,-0.78,-0.46
2.518,0.15,-0.53,0.56,0.68,-0.85,0.38
2.519,0.15,-0.55,0.55,0.68,-0.85,0.38
2.52,0.15,-0.55,0.55,0.81,-0.80,0.41
2.521,0.15,-0.56,0.54,0.81,-0.80,0.41
2.522,0.15,-0.56,0.54,0.85,-0.72,0.57
2.523,0.15,-0.57,0.52,0.85,-0.72,0.57
2.524,0.15,-0.57,0.52,0.84,-0.65,0.79
2.527,0.15,-0.57,0.52,0.88,-0.63,0.94
2.528,0.15,-0.57,0.50,0.88,-0.63,0.94
2.538,0.16,-0.55,0.48,0.88,-0.63,0.94
2.539,0.16,-0.55,0.48,0.97,-0.59,1.03
2.54,0.16,-0.50,0.45,0.97,-0.59,1.03
2.541,0.16,-0.50,0.45,1.03,-0.59,1.13
2.544,0.16,-0.50,0.45,1.04,-0.59,1.20
2.545,0.16,-0.45,0.42,1.04,-0.59,1.20
2.55,0.15,-0.39,0.39,1.04,-0.59,1.20
2.552,0.15,-0.39,0.39,0.89,-0.57,1.18
2.553,0.13,-0.32,0.37,0.89,-0.57,1.18
2.553,0.13,-0.32,0.37,0.68,-0.58,1.02
2.556,0.10,-0.26,0.34,0.68,-0.58,1.02
2.557,0.10,-0.26,0.34,0.55,-0.56,0.83
2.563,0.10,-0.26,0.34,0.61,-0.55,0.75
2.565,0.08,-0.17,0.31,0.61,-0.55,0.75
2.567,0.05,-0.11,0.29,0.61,-0.55,0.75
2.568,0.05,-0.11,0.29,0.74,-0.51,0.91
2.571,0.03,-0.04,0.26,0.74,-0.51,0.91
2.572,0.03,-0.04,0.26,0.68,-0.53,1.04
2.576,0.03,-0.04,0.26,0.48,-0.48,1.14
2.577,0.03,0.01,0.24,0.48,-0.48,1.14
2.581,0.03,0.01,0.24,0.20,-0.44,1.04
2.583,0.03,0.06,0.23,0.20,-0.44,1.04
2.586,0.04,0.11,0.22,0.20,-0.44,1.04
2.587,0.04,0.11,0.22,0.09,-0.49,0.96
2.591,0.06,0.11,0.21,0.09,-0.49,0.96
2.592,0.06,0.11,0.21,0.16,-0.47,0.89
2.597,0.06,0.11,0.21,0.28,-0.42,1.01
2.598,0.08,0.11,0.20,0.28,-0.42,1.01
2.602,0.11,0.12,0.20,0.28,-0.42,1.01
2.603,0.11,0.12,0.20,0.29,-0.45,0.95
2.606,0.15,0.14,0.20,0.29,-0.45,0.95
2.607,0.15,0.14,0.20,0.18,-0.50,0.75
2.614,0.18,0.16,0.20,0.18,-0.50,0.75
2.616,0.18,0.16,0.20,-0.03,-0.49,0.48
2.617,0.20,0.15,0.20,-0.03,-0.49,0.48
2.618,0.20,0.15,0.20,-0.09,-0.46,0.11
2.622,0.20,0.15,0.20,-0.00,-0.46,-0.22
2.622,0.21,0.16,0.20,-0.00,-0.46,-0.22
2.627,0.21,0.15,0.20,-0.00,-0.46,-0.22
2.628,0.21,0.15,0.20,0.16,-0.48,-0.39
2.632,0.21,0.15,0.20,0.26,-0.51,-0.46
2.633,0.21,0.15,0.21,0.26,-0.51,-0.46
2.637,0.21,0.15,0.21,0.21,-0.48,-0.54
2.638,0.20,0.15,0.20,0.21,-0.48,-0.54
2.642,0.20,0.15,0.20,0.21,-0.48,-0.54
2.643,0.20,0.15,0.20,0.06,-0.46,-0.67
2.653,0.19,0.13,0.20,0.06,-0.46,-0.67
2.654,0.19,0.13,0.20,-0.01,-0.42,-0.85
2.655,0.19,0.13,0.20,0.04,-0.41,-1.01
2.657,0.19,0.11,0.20,0.04,-0.41,-1.01
2.658,0.19,0.11,0.20,0.19,-0.38,-1.17
2.659,0.18,0.11,0.19,0.19,-0.38,-1.17
2.665,0.18,0.11,0.19,0.32,-0.36,-1.14
2.667,0.17,0.08,0.18,0.32,-0.36,-1.14
2.668,0.17,0.08,0.18,0.36,-0.36,-1.15
2.669,0.16,0.04,0.17,0.36,-0.36,-1.15
2.673,0.16,0.04,0.17,0.30,-0.31,-1.15
2.674,0.15,0.02,0.16,0.30,-0.31,-1.15
2.681,0.15,0.02,0.16,0.21,-0.31,-1.20
2.683,0.14,-0.02,0.15,0.21,-0.31,-1.20
2.684,0.14,-0.02,0.15,0.13,-0.26,-1.29
2.685,0.13,-0.06,0.13,0.13,-0.26,-1.29
2.687,0.12,-0.10,0.12,0.13,-0.26,-1.29
2.688,0.12,-0.10,0.12,0.20,-0.25,-1.36
2.692,0.12,-0.10,0.12,0.34,-0.24,-1.44
2.693,0.12,-0.13,0.10,0.34,-0.24,-1.44
2.698,0.12,-0.13,0.10,0.38,-0.23,-1.42
2.7,0.10,-0.15,0.08,0.38,-0.23,-1.42
2.703,0.10,-0.15,0.08,0.41,-0.21,-1.35
2.704,0.08,-0.18,0.05,0.41,-0.21,-1.35
2.708,0.05,-0.20,0.03,0.41,-0.21,-1.35
2.708,0.05,-0.20,0.03,0.33,-0.16,-1.23
2.714,0.05,-0.20,0.03,0.20,-0.17,-1.17
2.716,0.03,-0.22,0.01,0.20,-0.17,-1.17
2.718,0.03,-0.22,0.01,0.07,-0.16,-1.10
2.719,-0.00,-0.24,-0.01,0.07,-0.16,-1.10
2.722,-0.02,-0.23,-0.03,0.07,-0.16,-1.10
2.723,-0.02,-0.23,-0.03,0.04,-0.17,-0.97
2.728,-0.04,-0.24,-0.05,0.04,-0.17,-0.97
2.729,-0.04,-0.24,-0.05,0.08,-0.21,-0.92
2.733,-0.05,-0.22,-0.06,0.08,-0.21,-0.92
2.735,-0.05,-0.22,-0.06,0.12,-0.24,-0.72
2.738,-0.05,-0.22,-0.06,0.13,-0.28,-0.52
2.739,-0.06,-0.20,-0.07,0.13,-0.28,-0.52
2.743,-0.06,-0.20,-0.07,0.01,-0.29,-0.35
2.744,-0.06,-0.21,-0.09,0.01,-0.29,-0.35
2.749,-0.07,-0.19,-0.10,0.01,-0.29,-0.35
2.751,-0.07,-0.19,-0.10,-0.16,-0.31,-0.33
2.753,-0.07,-0.15,-0.10,-0.16,-0.31,-0.33
2.754,-0.07,-0.15,-0.10,-0.35,-0.31,-0.36
2.776,-0.07,-0.15,-0.10,-0.46,-0.34,-0.41
2.778,-0.07,-0.11,-0.11,-0.46,-0.34,-0.41
2.779,-0.07,-0.11,-0.11,-0.53,-0.37,-0.48
2.781,-0.08,-0.08,-0.10,-0.53,-0.37,-0.48
2.783,-0.08,-0.08,-0.10,-0.50,-0.39,-0.52
2.784,-0.09,-0.06,-0.10,-0.50,-0.39,-0.52
2.785,-0.10,-0.04,-0.10,-0.50,-0.39,-0.52
2.786,-0.10,-0.04,-0.10,-0.46,-0.41,-0.50
2.786,-0.10,-0.04,-0.10,-0.48,-0.37,-0.47
2.787,-0.11,-0.03,-0.09,-0.48,-0.37,-0.47
2.788,-0.12,-0.02,-0.08,-0.48,-0.37,-0.47
2.789,-0.12,-0.02,-0.08,-0.58,-0.42,-0.41
2.789,-0.12,-0.03,-0.07,-0.58,-0.42,-0.41
2.79,-0.12,-0.03,-0.07,-0.70,-0.44,-0.39
2.798,-0.12,-0.04,-0.06,-0.70,-0.44,-0.39
2.799,-0.12,-0.04,-0.06,-0.82,-0.43,-0.39
2.801,-0.11,-0.05,-0.05,-0.82,-0.43,-0.39
2.802,-0.11,-0.05,-0.05,-0.84,-0.40,-0.38
2.805,-0.10,-0.06,-0.03,-0.84,-0.40,-0.38
2.806,-0.10,-0.06,-0.03,-0.76,-0.40,-0.44
2.808,-0.09,-0.07,-0.02,-0.76,-0.40,-0.44
2.809,-0.09,-0.07,-0.02,-0.63,-0.46,-0.37
2.813,-0.09,-0.07,-0.02,-0.54,-0.45,-0.28
2.815,-0.08,-0.11,-0.01,-0.54,-0.45,-0.28
2.818,-0.08,-0.11,-0.01,-0.52,-0.44,-0.17
2.819,-0.06,-0.15,0.00,-0.52,-0.44,-0.17
2.823,-0.04,-0.17,0.02,-0.52,-0.44,-0.17
2.824,-0.04,-0.17,0.02,-0.53,-0.41,-0.13
2.83,-0.03,-0.17,0.03,-0.53,-0.41,-0.13
2.832,-0.03,-0.17,0.03,-0.60,-0.41,-0.16
2.835,-0.02,-0.19,0.04,-0.60,-0.41,-0.16
2.836,-0.02,-0.19,0.04,-0.43,-0.36,-0.29
2.839,-0.02,-0.19,0.04,-0.53,-0.35,-0.68
2.84,-0.01,-0.20,0.05,-0.53,-0.35,-0.68
2.844,-0.03,-0.19,0.05,-0.53,-0.35,-0.68
2.845,-0.03,-0.19,0.05,-0.33,-0.36,0.05
2.849,-0.03,-0.20,0.05,-0.33,-0.36,0.05
2.851,-0.03,-0.20,0.05,-0.42,-0.35,-0.86
2.854,-0.06,-0.18,0.05,-0.42,-0.35,-0.86
2.855,-0.06,-0.18,0.05,0.09,-0.35,-0.34
2.859,-0.07,-0.19,0.04,0.09,-0.35,-0.34
2.86,-0.07,-0.19,0.04,-0.60,-0.21,-0.08
2.864,-0.07,-0.19,0.04,-0.09,-0.32,-0.47
2.866,-0.07,-0.19,0.05,-0.09,-0.32,-0.47
2.869,-0.07,-0.19,0.05,0.04,-0.34,-0.32
2.87,-0.10,-0.17,0.04,0.04,-0.34,-0.32
2.874,-0.11,-0.17,0.02,0.04,-0.34,-0.32
2.875,-0.11,-0.17,0.02,-0.20,-0.20,0.12
2.88,-0.11,-0.17,0.02,-0.09,-0.18,0.09
2.882,-0.10,-0.19,0.02,-0.09,-0.18,0.09
2.884,-0.10,-0.19,0.02,-0.08,-0.21,0.10
2.885,-0.10,-0.19,0.01,-0.08,-0.21,0.10
2.889,-0.10,-0.19,0.00,-0.08,-0.21,0.10
2.891,-0.10,-0.19,0.00,-0.07,-0.23,0.19
2.895,-0.09,-0.19,-0.01,-0.07,-0.23,0.19
2.896,-0.09,-0.19,-0.01,-0.09,-0.22,0.21
2.9,-0.08,-0.18,-0.01,-0.09,-0.22,0.21
2.902,-0.08,-0.18,-0.01,-0.10,-0.18,0.19
2.905,-0.09,-0.18,-0.02,-0.10,-0.18,0.19
2.906,-0.09,-0.18,-0.02,-0.13,-0.21,0.17
2.909,-0.09,-0.18,-0.02,-0.13,-0.21,0.20
2.91,-0.09,-0.17,-0.02,-0.13,-0.21,0.20
2.92,-0.10,-0.17,-0.02,-0.13,-0.21,0.20
2.922,-0.10,-0.17,-0.02,-0.06,-0.20,0.22
2.923,-0.10,-0.17,-0.02,-0.11,-0.18,0.28
2.924,-0.10,-0.16,-0.03,-0.11,-0.18,0.28
2.925,-0.10,-0.16,-0.03,-0.10,-0.16,0.36
2.926,-0.10,-0.15,-0.03,-0.10,-0.16,0.36
2.934,-0.10,-0.15,-0.03,-0.10,-0.16,0.36
2.936,-0.10,-0.15,-0.03,-0.03,-0.13,0.44
2.937,-0.10,-0.15,-0.03,-0.03,-0.09,0.48
2.938,-0.09,-0.14,-0.04,-0.03,-0.09,0.48
2.94,-0.09,-0.14,-0.04,-0.02,-0.09,0.54
2.941,-0.08,-0.13,-0.04,-0.02,-0.09,0.54
2.947,-0.08,-0.13,-0.04,-0.00,-0.08,0.58
2.949,-0.07,-0.12,-0.04,-0.00,-0.08,0.58
2.95,-0.07,-0.12,-0.04,0.03,-0.06,0.60
2.951,-0.06,-0.12,-0.05,0.03,-0.06,0.60
2.954,-0.06,-0.12,-0.05,0.05,-0.02,0.60
2.955,-0.04,-0.11,-0.05,0.05,-0.02,0.60
2.959,-0.04,-0.11,-0.05,0.10,-0.01,0.58
2.961,-0.02,-0.11,-0.05,0.10,-0.01,0.58
2.967,-0.02,-0.11,-0.05,0.18,-0.00,0.52
2.969,-0.01,-0.11,-0.05,0.18,-0.00,0.52
2.97,-0.01,-0.11,-0.05,0.27,0.02,0.48
2.971,0.00,-0.12,-0.06,0.27,0.02,0.48
2.975,0.01,-0.12,-0.06,0.27,0.02,0.48
2.976,0.01,-0.12,-0.06,0.44,0.04,0.43
2.981,0.01,-0.12,-0.06,0.61,-0.02,0.33
2.984,0.02,-0.13,-0.07,0.61,-0.02,0.33
2.985,0.02,-0.14,-0.09,0.61,-0.02,0.33
2.986,0.02,-0.14,-0.09,0.81,-0.08,0.22
2.99,0.01,-0.16,-0.12,0.81,-0.08,0.22
2.991,0.01,-0.16,-0.12,1.00,-0.13,0.16
2.998,0.01,-0.16,-0.12,1.14,-0.17,0.10
3.0,-0.01,-0.20,-0.15,1.14,-0.17,0.10
3.001,-0.01,-0.20,-0.15,1.26,-0.22,0.02
3.002,-0.03,-0.23,-0.19,1.26,-0.22,0.02
3.005,-0.03,-0.23,-0.19,1.27,-0.29,0.08
3.006,-0.07,-0.26,-0.22,1.27,-0.29,0.08
3.026,-0.10,-0.29,-0.25,1.27,-0.29,0.08
3.027,-0.10,-0.29,-0.25,1.32,-0.34,0.20
3.029,-0.14,-0.31,-0.28,1.32,-0.34,0.20
3.031,-0.14,-0.31,-0.28,1.36,-0.39,0.30
3.033,-0.14,-0.31,-0.28,1.42,-0.36,0.48
3.035,-0.18,-0.32,-0.32,1.42,-0.36,0.48
3.036,-0.21,-0.33,-0.35,1.42,-0.36,0.48
3.038,-0.21,-0.33,-0.35,1.45,-0.36,0.68
3.039,-0.21,-0.33,-0.35,1.48,-0.39,0.76
3.04,-0.23,-0.32,-0.38,1.48,-0.39,0.76
3.041,-0.26,-0.31,-0.42,1.48,-0.39,0.76
3.042,-0.26,-0.31,-0.42,1.46,-0.33,0.80
3.042,-0.29,-0.29,-0.46,1.46,-0.33,0.80
3.043,-0.29,-0.29,-0.46,1.40,-0.35,0.74
3.047,-0.34,-0.26,-0.50,1.40,-0.35,0.74
3.048,-0.34,-0.26,-0.50,1.33,-0.37,0.70
3.05,-0.38,-0.22,-0.54,1.33,-0.37,0.70
3.051,-0.38,-0.22,-0.54,1.23,-0.37,0.69
3.055,-0.43,-0.18,-0.58,1.23,-0.37,0.69
3.056,-0.43,-0.18,-0.58,1.03,-0.42,0.76
3.06,-0.48,-0.13,-0.61,1.03,-0.42,0.76
3.061,-0.48,-0.13,-0.61,0.80,-0.44,0.87
3.066,-0.52,-0.07,-0.62,0.80,-0.44,0.87
3.067,-0.52,-0.07,-0.62,0.52,-0.42,1.01
3.07,-0.55,-0.01,-0.62,0.52,-0.42,1.01
3.071,-0.55,-0.01,-0.62,0.21,-0.39,1.24
3.075,-0.56,0.05,-0.61,0.21,-0.39,1.24
3.076,-0.56,0.05,-0.61,-0.10,-0.31,1.38
3.086,-0.55,0.10,-0.60,-0.10,-0.31,1.38
3.087,-0.55,0.10,-0.60,-0.36,-0.28,1.44
3.088,-0.55,0.10,-0.60,-0.58,-0.20,1.49
3.089,-0.52,0.15,-0.57,-0.58,-0.20,1.49
3.092,-0.52,0.15,-0.57,-0.75,-0.10,1.51
3.093,-0.48,0.19,-0.53,-0.75,-0.10,1.51
3.096,-0.43,0.22,-0.50,-0.75,-0.10,1.51
3.098,-0.43,0.22,-0.50,-0.87,-0.04,1.43
3.1,-0.38,0.24,-0.46,-0.87,-0.04,1.43
3.101,-0.38,0.24,-0.46,-1.03,0.01,1.23
3.106,-0.38,0.24,-0.46,-1.11,0.04,0.99
3.107,-0.32,0.25,-0.41,-1.11,0.04,0.99
3.11,-0.32,0.25,-0.41,-1.17,0.11,0.79
3.111,-0.27,0.25,-0.36,-1.17,0.11,0.79
3.115,-0.22,0.24,-0.31,-1.17,0.11,0.79
3.117,-0.22,0.24,-0.31,-1.22,0.18,0.58
3.121,-0.22,0.24,-0.31,-1.21,0.24,0.32
3.121,-0.16,0.22,-0.26,-1.21,0.24,0.32
3.126,-0.12,0.19,-0.20,-1.21,0.24,0.32
3.126,-0.12,0.19,-0.20,-1.12,0.29,0.21
3.131,-0.07,0.15,-0.15,-1.12,0.29,0.21
3.133,-0.07,0.15,-0.15,-1.04,0.40,0.19
3.136,-0.01,0.10,-0.11,-1.04,0.40,0.19
3.137,-0.01,0.10,-0.11,-0.88,0.52,0.12
3.141,0.06,0.05,-0.07,-0.88,0.52,0.12
3.142,0.06,0.05,-0.07,-0.70,0.62,0.01
3.147,0.12,0.00,-0.04,-0.70,0.62,0.01
3.149,0.12,0.00,-0.04,-0.47,0.70,-0.05
3.151,0.18,-0.05,-0.02,-0.47,0.70,-0.05
3.152,0.18,-0.05,-0.02,-0.18,0.77,-0.14
3.156,0.24,-0.09,-0.01,-0.18,0.77,-0.14
3.157,0.24,-0.09,-0.01,0.03,0.86,-0.31
3.161,0.28,-0.12,-0.01,0.03,0.86,-0.31
3.162,0.28,-0.12,-0.01,0.22,0.94,-0.55
3.167,0.31,-0.15,-0.02,0.22,0.94,-0.55
3.17,0.31,-0.15,-0.02,0.48,0.98,-0.71
3.172,0.33,-0.17,-0.05,0.48,0.98,-0.71
3.174,0.33,-0.17,-0.05,0.75,0.96,-0.84
3.176,0.33,-0.17,-0.05,0.97,0.97,-1.00
3.177,0.33,-0.19,-0.09,0.97,0.97,-1.00
3.192,0.33,-0.19,-0.09,1.16,0.96,-1.14
3.195,0.33,-0.19,-0.14,1.16,0.96,-1.14
3.196,0.32,-0.19,-0.20,1.16,0.96,-1.14
3.198,0.32,-0.19,-0.20,1.33,0.90,-1.20
3.199,0.29,-0.18,-0.26,1.33,0.90,-1.20
3.201,0.29,-0.18,-0.26,1.44,0.80,-1.32
3.202,0.29,-0.18,-0.26,1.57,0.66,-1.39
3.203,0.26,-0.16,-0.34,1.57,0.66,-1.39
3.204,0.22,-0.14,-0.42,1.57,0.66,-1.39
3.206,0.22,-0.14,-0.42,1.61,0.56,-1.44
3.207,0.22,-0.14,-0.42,1.62,0.40,-1.46
3.208,0.16,-0.12,-0.49,1.62,0.40,-1.46
3.212,0.16,-0.12,-0.49,1.58,0.23,-1.40
3.215,0.11,-0.09,-0.57,1.58,0.23,-1.40
3.217,0.05,-0.07,-0.64,1.58,0.23,-1.40
3.218,0.05,-0.07,-0.64,1.47,0.03,-1.28
3.221,-0.01,-0.05,-0.70,1.47,0.03,-1.28
3.222,-0.01,-0.05,-0.70,1.39,-0.15,-1.15
3.226,-0.06,-0.03,-0.75,1.39,-0.15,-1.15
3.227,-0.06,-0.03,-0.75,1.29,-0.34,-0.92
3.232,-0.11,-0.02,-0.80,1.29,-0.34,-0.92
3.234,-0.11,-0.02,-0.80,1.16,-0.50,-0.65
3.237,-0.14,-0.02,-0.83,1.16,-0.50,-0.65
3.238,-0.14,-0.02,-0.83,1.00,-0.64,-0.40
3.241,-0.16,-0.01,-0.86,1.00,-0.64,-0.40
3.242,-0.16,-0.01,-0.86,0.80,-0.80,-0.19
3.247,-0.17,-0.01,-0.87,0.80,-0.80,-0.19
3.25,-0.17,-0.01,-0.87,0.65,-0.89,0.02
3.252,-0.17,-0.00,-0.88,0.65,-0.89,0.02
3.253,-0.17,-0.00,-0.88,0.51,-1.00,0.20
3.256,-0.17,-0.00,-0.87,0.51,-1.00,0.20
3.257,-0.17,-0.00,-0.87,0.34,-1.07,0.32
3.271,-0.16,0.01,-0.87,0.34,-1.07,0.32
3.272,-0.16,0.01,-0.87,0.21,-1.13,0.43
3.275,-0.16,0.01,-0.87,0.11,-1.17,0.44
3.275,-0.15,0.03,-0.85,0.11,-1.17,0.44
3.277,-0.13,0.05,-0.82,0.11,-1.17,0.44
3.278,-0.13,0.05,-0.82,0.01,-1.21,0.45
3.279,-0.12,0.06,-0.79,0.01,-1.21,0.45
3.279,-0.12,0.06,-0.79,-0.11,-1.22,0.44
3.282,-0.11,0.09,-0.76,-0.11,-1.22,0.44
3.284,-0.11,0.09,-0.76,-0.16,-1.19,0.40
3.286,-0.11,0.09,-0.76,-0.18,-1.14,0.39
3.287,-0.10,0.11,-0.73,-0.18,-1.14,0.39
3.292,-0.08,0.14,-0.69,-0.18,-1.14,0.39
3.293,-0.08,0.14,-0.69,-0.21,-1.12,0.31
3.298,-0.08,0.14,-0.69,-0.26,-1.11,0.18
3.299,-0.06,0.16,-0.65,-0.26,-1.11,0.18
3.302,-0.04,0.18,-0.61,-0.26,-1.11,0.18
3.303,-0.04,0.18,-0.61,-0.29,-1.05,0.09
3.307,-0.04,0.18,-0.61,-0.30,-0.96,-0.02
3.307,-0.03,0.20,-0.56,-0.30,-0.96,-0.02
3.319,-0.01,0.21,-0.52,-0.30,-0.96,-0.02
3.321,-0.01,0.21,-0.52,-0.32,-0.91,-0.14
3.322,0.01,0.21,-0.47,-0.32,-0.91,-0.14
3.323,0.01,0.21,-0.47,-0.27,-0.83,-0.26
3.325,0.01,0.21,-0.47,-0.21,-0.71,-0.39
3.326,0.03,0.20,-0.43,-0.21,-0.71,-0.39
3.333,0.03,0.20,-0.43,-0.13,-0.63,-0.52
3.334,0.05,0.19,-0.39,-0.13,-0.63,-0.52
3.335,0.08,0.17,-0.36,-0.13,-0.63,-0.52
3.336,0.08,0.17,-0.36,-0.04,-0.55,-0.63
3.338,0.08,0.17,-0.36,0.03,-0.43,-0.78
3.339,0.10,0.15,-0.33,0.03,-0.43,-0.78
3.342,0.13,0.13,-0.31,0.03,-0.43,-0.78
3.343,0.13,0.13,-0.31,0.14,-0.35,-0.92
3.347,0.13,0.13,-0.31,0.24,-0.27,-1.15
3.349,0.15,0.10,-0.29,0.24,-0.27,-1.15
3.352,0.16,0.07,-0.28,0.24,-0.27,-1.15
3.353,0.16,0.07,-0.28,0.34,-0.21,-1.43
3.357,0.16,0.05,-0.28,0.34,-0.21,-1.43
3.358,0.16,0.05,-0.28,0.42,-0.17,-1.63
3.364,0.15,0.03,-0.29,0.42,-0.17,-1.63
3.366,0.15,0.03,-0.29,0.52,-0.10,-1.79
3.367,0.15,0.03,-0.29,0.55,-0.08,-1.97
3.368,0.13,0.00,-0.31,0.55,-0.08,-1.97
3.372,0.11,-0.02,-0.32,0.55,-0.08,-1.97
3.373,0.11,-0.02,-0.32,0.59,-0.09,-2.11
3.378,0.07,-0.04,-0.34,0.59,-0.09,-2.11
3.379,0.07,-0.04,-0.34,0.62,-0.08,-2.19
3.383,0.03,-0.05,-0.36,0.62,-0.08,-2.19
3.385,0.03,-0.05,-0.36,0.63,-0.12,-2.19
3.387,0.03,-0.05,-0.36,0.61,-0.15,-2.15
3.388,-0.01,-0.06,-0.38,0.61,-0.15,-2.15
3.393,-0.05,-0.07,-0.40,0.61,-0.15,-2.15
3.393,-0.05,-0.07,-0.40,0.58,-0.13,-2.12
3.399,-0.05,-0.07,-0.40,0.53,-0.19,-2.08
3.4,-0.08,-0.07,-0.42,0.53,-0.19,-2.08
3.403,-0.12,-0.07,-0.44,0.53,-0.19,-2.08
3.404,-0.12,-0.07,-0.44,0.45,-0.21,-1.98
3.408,-0.12,-0.07,-0.44,0.40,-0.22,-1.87
3.408,-0.15,-0.08,-0.45,0.40,-0.22,-1.87
3.414,-0.15,-0.08,-0.45,0.36,-0.27,-1.79
3.416,-0.18,-0.08,-0.46,0.36,-0.27,-1.79
3.418,-0.21,-0.09,-0.47,0.36,-0.27,-1.79
3.419,-0.21,-0.09,-0.47,0.31,-0.29,-1.66
3.423,-0.23,-0.11,-0.47,0.31,-0.29,-1.66
3.423,-0.23,-0.11,-0.47,0.24,-0.29,-1.52
3.43,-0.23,-0.11,-0.47,0.13,-0.31,-1.38
3.432,-0.25,-0.13,-0.47,0.13,-0.31,-1.38
3.433,-0.27,-0.15,-0.47,0.13,-0.31,-1.38
3.434,-0.27,-0.15,-0.47,0.03,-0.29,-1.21
3.438,-0.28,-0.17,-0.47,0.03,-0.29,-1.21
3.438,-0.28,-0.17,-0.47,-0.04,-0.30,-1.08
3.443,-0.28,-0.20,-0.46,-0.04,-0.30,-1.08
3.444,-0.28,-0.20,-0.46,-0.12,-0.31,-0.91
3.449,-0.28,-0.22,-0.45,-0.12,-0.31,-0.91
3.45,-0.28,-0.22,-0.45,-0.18,-0.32,-0.76
3.453,-0.28,-0.23,-0.44,-0.18,-0.32,-0.76
3.454,-0.28,-0.23,-0.44,-0.27,-0.35,-0.69
3.458,-0.28,-0.25,-0.43,-0.27,-0.35,-0.69
3.459,-0.28,-0.25,-0.43,-0.35,-0.30,-0.57
3.472,-0.28,-0.25,-0.43,-0.44,-0.30,-0.53
3.474,-0.28,-0.25,-0.41,-0.44,-0.30,-0.53
3.475,-0.28,-0.25,-0.40,-0.44,-0.30,-0.53
3.476,-0.28,-0.25,-0.40,-0.50,-0.33,-0.45
3.493,-0.28,-0.25,-0.40,-0.60,-0.32,-0.40
3.495,-0.28,-0.25,-0.40,-0.66,-0.31,-0.31
3.497,-0.28,-0.25,-0.40,-0.73,-0.31,-0.22
3.498,-0.28,-0.25,-0.38,-0.73,-0.31,-0.22
3.499,-0.29,-0.25,-0.37,-0.73,-0.31,-0.22
3.499,-0.29,-0.25,-0.35,-0.73,-0.31,-0.22
3.5,-0.29,-0.24,-0.33,-0.73,-0.31,-0.22
3.501,-0.29,-0.24,-0.33,-0.80,-0.28,-0.13
3.502,-0.28,-0.23,-0.31,-0.80,-0.28,-0.13
3.502,-0.28,-0.23,-0.31,-0.83,-0.30,-0.07
3.505,-0.28,-0.23,-0.31,-0.84,-0.29,0.04
3.507,-0.28,-0.23,-0.31,-0.86,-0.26,0.15
3.508,-0.27,-0.21,-0.28,-0.86,-0.26,0.15
3.509,-0.26,-0.20,-0.26,-0.86,-0.26,0.15
3.509,-0.26,-0.20,-0.26,-0.91,-0.25,0.15
3.51,-0.25,-0.18,-0.23,-0.91,-0.25,0.15
3.525,-0.25,-0.18,-0.23,-0.94,-0.20,0.20
3.526,-0.23,-0.16,-0.20,-0.94,-0.20,0.20
3.529,-0.20,-0.13,-0.18,-0.94,-0.20,0.20
3.53,-0.20,-0.13,-0.18,-0.94,-0.22,0.20
3.531,-0.18,-0.11,-0.15,-0.94,-0.22,0.20
3.533,-0.18,-0.11,-0.15,-0.92,-0.19,0.13
3.534,-0.18,-0.11,-0.15,-0.90,-0.15,0.05
3.535,-0.17,-0.08,-0.12,-0.90,-0.15,0.05
3.537,-0.16,-0.05,-0.10,-0.90,-0.15,0.05
3.538,-0.16,-0.05,-0.10,-0.88,-0.10,-0.06
3.538,-0.15,-0.02,-0.07,-0.88,-0.10,-0.06
3.539,-0.15,-0.02,-0.07,-0.86,-0.07,-0.16
3.544,-0.15,0.00,-0.05,-0.86,-0.07,-0.16
3.545,-0.15,0.00,-0.05,-0.83,-0.04,-0.21
3.548,-0.15,0.02,-0.03,-0.83,-0.04,-0.21
3.549,-0.15,0.02,-0.03,-0.78,0.02,-0.24
3.553,-0.15,0.03,-0.01,-0.78,0.02,-0.24
3.554,-0.15,0.03,-0.01,-0.75,0.04,-0.31
3.558,-0.15,0.04,-0.00,-0.75,0.04,-0.31
3.559,-0.15,0.04,-0.00,-0.69,0.09,-0.34
3.564,-0.14,0.05,0.01,-0.69,0.09,-0.34
3.566,-0.14,0.05,0.01,-0.61,0.12,-0.33
3.569,-0.14,0.05,0.02,-0.61,0.12,-0.33
3.569,-0.14,0.05,0.02,-0.60,0.14,-0.40
3.573,-0.14,0.05,0.02,-0.55,0.15,-0.42
3.574,-0.14,0.05,0.03,-0.55,0.15,-0.42
3.58,-0.14,0.05,0.03,-0.48,0.20,-0.41
3.581,-0.13,0.04,0.04,-0.48,0.20,-0.41
3.584,-0.13,0.03,0.05,-0.48,0.20,-0.41
3.585,-0.13,0.03,0.05,-0.48,0.21,-0.44
3.589,-0.13,0.02,0.06,-0.48,0.21,-0.44
3.589,-0.13,0.02,0.06,-0.45,0.24,-0.48
3.594,-0.13,0.00,0.06,-0.45,0.24,-0.48
3.595,-0.13,0.00,0.06,-0.40,0.25,-0.46
3.603,-0.13,-0.01,0.07,-0.40,0.25,-0.46
3.606,-0.13,-0.01,0.07,-0.35,0.31,-0.46
3.607,-0.13,-0.02,0.07,-0.35,0.31,-0.46
3.609,-0.13,-0.02,0.07,-0.34,0.38,-0.38
3.611,-0.13,-0.02,0.07,-0.29,0.40,-0.37
3.612,-0.13,-0.02,0.07,-0.29,0.40,-0.37
3.618,-0.13,-0.02,0.07,-0.29,0.44,-0.32
3.619,-0.13,-0.02,0.08,-0.29,0.44,-0.32
3.62,-0.13,-0.02,0.08,-0.29,0.44,-0.32
3.621,-0.13,-0.02,0.08,-0.25,0.46,-0.29
3.625,-0.13,-0.02,0.08,-0.26,0.49,-0.30
3.626,-0.13,-0.01,0.08,-0.26,0.49,-0.30
3.63,-0.13,-0.01,0.08,-0.29,0.48,-0.29
3.632,-0.14,0.00,0.09,-0.29,0.48,-0.29
3.635,-0.14,0.00,0.09,-0.27,0.51,-0.27
3.636,-0.14,0.01,0.10,-0.27,0.51,-0.27
3.639,-0.14,0.01,0.10,-0.23,0.57,-0.26
3.64,-0.14,0.02,0.11,-0.23,0.57,-0.26
3.644,-0.15,0.02,0.11,-0.23,0.57,-0.26
3.645,-0.15,0.02,0.11,-0.20,0.56,-0.21
3.65,-0.15,0.02,0.11,-0.17,0.56,-0.14
3.652,-0.14,0.02,0.12,-0.17,0.56,-0.14
3.654,-0.13,0.02,0.13,-0.17,0.56,-0.14
3.655,-0.13,0.02,0.13,-0.13,0.61,-0.07
3.659,-0.12,0.02,0.14,-0.13,0.61,-0.07
3.66,-0.12,0.02,0.14,-0.11,0.63,-0.01
3.665,-0.11,0.01,0.16,-0.11,0.63,-0.01
3.666,-0.11,0.01,0.16,-0.09,0.62,0.05
3.67,-0.11,0.01,0.16,-0.04,0.67,0.13
3.671,-0.09,0.01,0.17,-0.04,0.67,0.13
3.675,-0.07,-0.00,0.18,-0.04,0.67,0.13
3.676,-0.07,-0.00,0.18,0.03,0.67,0.12
3.68,-0.07,-0.00,0.18,0.06,0.68,0.16
3.682,-0.05,-0.01,0.20,0.06,0.68,0.16
3.685,-0.03,-0.02,0.21,0.06,0.68,0.16
3.686,-0.03,-0.02,0.21,0.12,0.74,0.17
3.69,-0.02,-0.02,0.22,0.12,0.74,0.17
3.691,-0.02,-0.02,0.22,0.21,0.80,0.19
3.695,-0.02,-0.02,0.22,0.26,0.80,0.16
3.696,0.00,-0.03,0.23,0.26,0.80,0.16
3.702,0.02,-0.03,0.23,0.26,0.80,0.16
3.704,0.02,-0.03,0.23,0.37,0.82,0.18
3.705,0.02,-0.03,0.23,0.42,0.88,0.23
3.706,0.04,-0.03,0.23,0.42,0.88,0.23
3.71,0.06,-0.03,0.23,0.42,0.88,0.23
3.711,0.06,-0.03,0.23,0.49,0.94,0.23
3.716,0.06,-0.03,0.23,0.62,0.95,0.15
3.718,0.07,-0.03,0.23,0.62,0.95,0.15
3.72,0.09,-0.01,0.22,0.62,0.95,0.15
3.721,0.09,-0.01,0.22,0.69,0.98,0.09
3.725,0.10,0.01,0.21,0.69,0.98,0.09
3.726,0.10,0.01,0.21,0.77,1.00,-0.04
3.73,0.10,0.01,0.21,0.85,0.94,-0.16
3.732,0.10,0.02,0.20,0.85,0.94,-0.16
3.735,0.09,0.04,0.18,0.85,0.94,-0.16
3.736,0.09,0.04,0.18,0.96,0.89,-0.31
3.74,0.07,0.06,0.15,0.96,0.89,-0.31
3.741,0.07,0.06,0.15,1.08,0.82,-0.49
3.755,0.07,0.06,0.15,1.18,0.72,-0.65
3.76,0.04,0.07,0.12,1.18,0.72,-0.65
3.761,0.04,0.07,0.12,1.15,0.59,-0.74
3.762,-0.00,0.08,0.09,1.15,0.59,-0.74
3.764,-0.05,0.08,0.06,1.15,0.59,-0.74
3.765,-0.05,0.08,0.06,1.16,0.46,-0.74
3.767,-0.05,0.08,0.06,1.11,0.35,-0.71
3.768,-0.10,0.08,0.04,1.11,0.35,-0.71
3.784,-0.10,0.08,0.04,1.01,0.23,-0.58
3.785,-0.15,0.07,0.02,1.01,0.23,-0.58
3.786,-0.15,0.07,0.02,0.91,0.11,-0.35
3.787,-0.19,0.05,0.01,0.91,0.11,-0.35
3.788,-0.23,0.03,0.00,0.91,0.11,-0.35
3.789,-0.23,0.03,0.00,0.81,0.01,-0.03
3.79,-0.23,0.03,0.00,0.71,-0.09,0.25
3.791,-0.25,0.00,0.01,0.71,-0.09,0.25
3.792,-0.25,0.00,0.01,0.59,-0.15,0.48
3.792,-0.25,-0.03,0.01,0.59,-0.15,0.48
3.793,-0.25,-0.05,0.02,0.59,-0.15,0.48
3.794,-0.25,-0.05,0.02,0.56,-0.20,0.65
3.796,-0.24,-0.08,0.03,0.56,-0.20,0.65
3.798,-0.24,-0.08,0.03,0.47,-0.24,0.79
3.802,-0.24,-0.08,0.03,0.44,-0.24,0.87
3.803,-0.24,-0.11,0.05,0.44,-0.24,0.87
3.805,-0.24,-0.11,0.05,0.43,-0.26,1.02
3.806,-0.23,-0.13,0.06,0.43,-0.26,1.02
3.81,-0.23,-0.13,0.06,0.44,-0.25,1.13
3.811,-0.22,-0.15,0.07,0.44,-0.25,1.13
3.816,-0.21,-0.17,0.08,0.44,-0.25,1.13
3.818,-0.21,-0.17,0.08,0.42,-0.18,1.23
3.821,-0.21,-0.17,0.08,0.46,-0.14,1.29
3.822,-0.20,-0.17,0.08,0.46,-0.14,1.29
3.825,-0.20,-0.17,0.08,0.49,-0.10,1.38
3.826,-0.19,-0.16,0.08,0.49,-0.10,1.38
3.83,-0.19,-0.14,0.07,0.49,-0.10,1.38
3.832,-0.19,-0.14,0.07,0.46,-0.09,1.35
3.836,-0.18,-0.11,0.07,0.46,-0.09,1.35
3.837,-0.18,-0.11,0.07,0.44,-0.08,1.32
3.841,-0.19,-0.08,0.05,0.44,-0.08,1.32
3.841,-0.19,-0.08,0.05,0.42,-0.01,1.28
3.847,-0.20,-0.04,0.04,0.42,-0.01,1.28
3.849,-0.20,-0.04,0.04,0.35,-0.00,1.30
3.851,-0.21,0.01,0.03,0.35,-0.00,1.30
3.852,-0.21,0.01,0.03,0.26,0.01,1.31
3.856,-0.21,0.07,0.02,0.26,0.01,1.31
3.856,-0.21,0.07,0.02,0.18,0.01,1.36
3.861,-0.21,0.11,0.02,0.18,0.01,1.36
3.862,-0.21,0.11,0.02,0.07,0.07,1.38
3.866,-0.20,0.16,0.01,0.07,0.07,1.38
3.868,-0.20,0.16,0.01,-0.03,0.07,1.45
3.871,-0.20,0.16,0.01,-0.15,0.09,1.45
3.871,-0.19,0.22,0.01,-0.15,0.09,1.45
3.876,-0.19,0.22,0.01,-0.27,0.13,1.39
3.877,-0.17,0.26,0.01,-0.27,0.13,1.39
3.888,-0.14,0.31,0.01,-0.27,0.13,1.39
3.895,-0.14,0.31,0.01,-0.36,0.10,1.31
3.897,-0.14,0.31,0.01,-0.48,0.11,1.14
3.898,-0.11,0.35,0.02,-0.48,0.11,1.14
3.899,-0.11,0.35,0.02,-0.57,0.10,0.97
3.9,-0.11,0.35,0.02,-0.68,0.01,0.84
3.902,-0.08,0.39,0.03,-0.68,0.01,0.84
3.903,-0.05,0.42,0.04,-0.68,0.01,0.84
3.905,-0.03,0.45,0.06,-0.68,0.01,0.84
3.906,-0.03,0.45,0.06,-0.79,-0.03,0.63
3.906,-0.03,0.45,0.06,-0.88,-0.04,0.50
3.907,-0.00,0.48,0.09,-0.88,-0.04,0.50
3.911,-0.00,0.48,0.09,-0.93,-0.07,0.38
3.914,0.03,0.49,0.12,-0.93,-0.07,0.38
3.916,0.03,0.49,0.12,-0.98,-0.11,0.30
3.917,0.07,0.50,0.15,-0.98,-0.11,0.30
3.921,0.07,0.50,0.15,-1.02,-0.11,0.17
3.922,0.11,0.49,0.19,-1.02,-0.11,0.17
3.926,0.11,0.49,0.19,-1.03,-0.17,0.10
3.927,0.15,0.48,0.23,-1.03,-0.17,0.10
3.933,0.15,0.48,0.23,-0.98,-0.21,0.04
3.935,0.20,0.46,0.27,-0.98,-0.21,0.04
3.937,0.25,0.42,0.31,-0.98,-0.21,0.04
3.938,0.25,0.42,0.31,-0.92,-0.25,-0.11
3.941,0.30,0.38,0.35,-0.92,-0.25,-0.11
3.942,0.30,0.38,0.35,-0.83,-0.28,-0.24
3.947,0.35,0.34,0.38,-0.83,-0.28,-0.24
3.949,0.35,0.34,0.38,-0.66,-0.30,-0.40
3.952,0.35,0.34,0.38,-0.50,-0.41,-0.63
3.953,0.40,0.28,0.41,-0.50,-0.41,-0.63
3.956,0.43,0.23,0.43,-0.50,-0.41,-0.63
3.957,0.43,0.23,0.43,-0.27,-0.48,-0.79
3.963,0.46,0.17,0.44,-0.27,-0.48,-0.79
3.966,0.46,0.17,0.44,-0.06,-0.51,-0.91
3.967,0.47,0.11,0.45,-0.06,-0.51,-0.91
3.968,0.47,0.11,0.45,0.11,-0.58,-1.09
3.972,0.47,0.11,0.45,0.22,-0.63,-1.25
3.972,0.47,0.06,0.45,0.22,-0.63,-1.25
3.977,0.46,0.00,0.45,0.22,-0.63,-1.25
3.977,0.46,0.00,0.45,0.40,-0.68,-1.39
3.982,0.44,-0.05,0.44,0.40,-0.68,-1.39
3.984,0.44,-0.05,0.44,0.55,-0.73,-1.44
3.987,0.41,-0.11,0.42,0.55,-0.73,-1.44
3.988,0.41,-0.11,0.42,0.73,-0.76,-1.41
3.992,0.38,-0.15,0.40,0.73,-0.76,-1.41
3.993,0.38,-0.15,0.40,0.88,-0.78,-1.34
3.997,0.38,-0.15,0.40,1.01,-0.77,-1.18
3.999,0.34,-0.19,0.38,1.01,-0.77,-1.18
4.002,0.30,-0.23,0.34,1.01,-0.77,-1.18
4.003,0.30,-0.23,0.34,1.06,-0.73,-1.00
4.007,0.27,-0.27,0.31,1.06,-0.73,-1.00
4.008,0.27,-0.27,0.31,1.10,-0.77,-0.72
4.013,0.27,-0.27,0.31,1.18,-0.78,-0.44
4.015,0.24,-0.31,0.28,1.18,-0.78,-0.44
4.028,0.22,-0.33,0.24,1.18,-0.78,-0.44
4.032,0.22,-0.33,0.24,1.26,-0.75,-0.21
4.033,0.20,-0.34,0.19,1.26,-0.75,-0.21
4.035,0.20,-0.34,0.19,1.30,-0.71,-0.04
4.036,0.19,-0.34,0.15,1.30,-0.71,-0.04
4.037,0.19,-0.34,0.15,1.32,-0.70,0.16
4.038,0.19,-0.34,0.15,1.33,-0.67,0.25
4.039,0.18,-0.33,0.09,1.33,-0.67,0.25
4.039,0.17,-0.31,0.04,1.33,-0.67,0.25
4.04,0.17,-0.31,0.04,1.32,-0.67,0.28
4.05,0.15,-0.28,-0.02,1.32,-0.67,0.28
4.051,0.15,-0.28,-0.02,1.26,-0.69,0.31
4.053,0.12,-0.23,-0.08,1.26,-0.69,0.31
4.053,0.12,-0.23,-0.08,1.18,-0.70,0.33
4.055,0.08,-0.18,-0.13,1.18,-0.70,0.33
4.055,0.08,-0.18,-0.13,1.10,-0.74,0.34
4.057,0.04,-0.12,-0.19,1.10,-0.74,0.34
4.058,0.04,-0.12,-0.19,0.96,-0.77,0.43
4.064,0.01,-0.06,-0.23,0.96,-0.77,0.43
4.065,0.01,-0.06,-0.23,0.85,-0.80,0.51
4.067,-0.03,0.01,-0.27,0.85,-0.80,0.51
4.068,-0.03,0.01,-0.27,0.70,-0.89,0.62
4.072,-0.03,0.01,-0.27,0.51,-0.90,0.73
4.073,-0.06,0.08,-0.30,0.51,-0.90,0.73
4.077,-0.07,0.14,-0.33,0.51,-0.90,0.73
4.078,-0.07,0.14,-0.33,0.34,-1.01,0.82
4.082,-0.07,0.20,-0.34,0.34,-1.01,0.82
4.084,-0.07,0.20,-0.34,0.16,-1.04,0.90
4.087,-0.07,0.25,-0.35,0.16,-1.04,0.90
4.088,-0.07,0.25,-0.35,-0.01,-1.09,0.90
4.092,-0.07,0.25,-0.35,-0.17,-1.17,0.94
4.093,-0.06,0.28,-0.34,-0.17,-1.17,0.94
4.098,-0.04,0.31,-0.33,-0.17,-1.17,0.94
4.1,-0.04,0.31,-0.33,-0.28,-1.20,0.90
4.103,-0.02,0.32,-0.31,-0.28,-1.20,0.90
4.104,-0.02,0.32,-0.31,-0.39,-1.23,0.81
4.107,-0.02,0.32,-0.31,-0.45,-1.24,0.69
4.108,0.02,0.33,-0.29,-0.45,-1.24,0.69
4.114,0.02,0.33,-0.29,-0.47,-1.27,0.58
4.116,0.05,0.32,-0.26,-0.47,-1.27,0.58
4.118,0.08,0.31,-0.24,-0.47,-1.27,0.58
4.119,0.08,0.31,-0.24,-0.47,-1.30,0.44
4.123,0.11,0.30,-0.21,-0.47,-1.30,0.44
4.124,0.11,0.30,-0.21,-0.48,-1.28,0.22
4.128,0.14,0.27,-0.19,-0.48,-1.28,0.22
4.129,0.14,0.27,-0.19,-0.47,-1.29,0.06
4.133,0.14,0.27,-0.19,-0.47,-1.31,-0.11
4.134,0.16,0.25,-0.16,-0.47,-1.31,-0.11
4.138,0.18,0.23,-0.14,-0.47,-1.31,-0.11
4.139,0.18,0.23,-0.14,-0.42,-1.29,-0.22
4.143,0.19,0.20,-0.11,-0.42,-1.29,-0.22
4.144,0.19,0.20,-0.11,-0.36,-1.27,-0.37
4.154,0.20,0.18,-0.09,-0.36,-1.27,-0.37
4.156,0.20,0.18,-0.09,-0.30,-1.25,-0.42
4.157,0.21,0.16,-0.07,-0.30,-1.25,-0.42
4.159,0.21,0.16,-0.07,-0.25,-1.25,-0.50
4.169,0.21,0.16,-0.07,-0.18,-1.23,-0.56
4.171,0.21,0.16,-0.07,-0.07,-1.21,-0.60
4.172,0.22,0.14,-0.05,-0.07,-1.21,-0.60
4.173,0.23,0.12,-0.03,-0.07,-1.21,-0.60
4.174,0.24,0.10,-0.01,-0.07,-1.21,-0.60
4.175,0.24,0.10,-0.01,0.02,-1.16,-0.69
4.176,0.24,0.10,-0.01,0.10,-1.16,-0.81
4.177,0.24,0.08,-0.00,0.10,-1.16,-0.81
4.181,0.24,0.06,0.01,0.10,-1.16,-0.81
4.183,0.24,0.06,0.01,0.18,-1.14,-0.84
4.184,0.24,0.04,0.01,0.18,-1.14,-0.84
4.186,0.24,0.04,0.01,0.28,-1.09,-0.88
4.188,0.23,0.02,0.01,0.28,-1.09,-0.88
4.189,0.23,0.02,0.01,0.35,-1.07,-0.98
4.194,0.22,0.01,0.01,0.35,-1.07,-0.98
4.195,0.22,0.01,0.01,0.46,-1.06,-1.02
4.199,0.21,-0.00,0.01,0.46,-1.06,-1.02
4.202,0.21,-0.00,0.01,0.54,-1.01,-1.10
4.204,0.19,-0.01,-0.00,0.54,-1.01,-1.10
4.205,0.19,-0.01,-0.00,0.56,-0.97,-1.14
4.208,0.17,-0.01,-0.02,0.56,-0.97,-1.14
4.209,0.17,-0.01,-0.02,0.62,-0.91,-1.15
4.215,0.17,-0.01,-0.02,0.65,-0.89,-1.12
4.217,0.15,-0.01,-0.03,0.65,-0.89,-1.12
4.219,0.12,-0.00,-0.05,0.65,-0.89,-1.12
4.219,0.12,-0.00,-0.05,0.66,-0.85,-1.11
4.224,0.09,0.00,-0.07,0.66,-0.85,-1.11
4.225,0.09,0.00,-0.07,0.67,-0.79,-1.06
4.231,0.07,0.01,-0.09,0.67,-0.79,-1.06
4.233,0.07,0.01,-0.09,0.63,-0.75,-0.99
4.235,0.07,0.01,-0.09,0.61,-0.74,-0.98
4.236,0.04,0.02,-0.11,0.61,-0.74,-0.98
4.238,0.02,0.03,-0.13,0.61,-0.74,-0.98
4.239,0.02,0.03,-0.13,0.58,-0.78,-0.91
4.244,0.01,0.04,-0.15,0.58,-0.78,-0.91
4.245,0.01,0.04,-0.15,0.50,-0.80,-0.90
4.249,0.01,0.04,-0.15,0.46,-0.75,-0.78
4.251,-0.01,0.04,-0.16,0.46,-0.75,-0.78
4.254,-0.01,0.04,-0.16,0.44,-0.77,-0.73
4.255,-0.02,0.04,-0.18,0.44,-0.77,-0.73
4.259,-0.03,0.04,-0.19,0.44,-0.77,-0.73
4.259,-0.03,0.04,-0.19,0.37,-0.78,-0.74
4.264,-0.03,0.05,-0.20,0.37,-0.78,-0.74
4.266,-0.03,0.05,-0.20,0.29,-0.77,-0.71
4.28,-0.04,0.06,-0.21,0.29,-0.77,-0.71
4.284,-0.04,0.06,-0.21,0.28,-0.77,-0.71
4.286,-0.04,0.06,-0.21,0.23,-0.78,-0.70
4.287,-0.05,0.06,-0.21,0.23,-0.78,-0.70
4.288,-0.06,0.05,-0.21,0.23,-0.78,-0.70
4.289,-0.06,0.05,-0.21,0.17,-0.77,-0.69
4.29,-0.07,0.05,-0.21,0.17,-0.77,-0.69
4.291,-0.07,0.05,-0.21,0.17,-0.71,-0.66
4.291,-0.07,0.04,-0.21,0.17,-0.71,-0.66
4.292,-0.07,0.04,-0.21,0.13,-0.71,-0.62
4.295,-0.07,0.04,-0.21,0.08,-0.73,-0.62
4.298,-0.07,0.03,-0.21,0.08,-0.73,-0.62
4.299,-0.07,0.02,-0.20,0.08,-0.73,-0.62
4.3,-0.07,0.02,-0.20,0.07,-0.69,-0.60
4.304,-0.07,0.01,-0.20,0.07,-0.69,-0.60
4.305,-0.07,0.01,-0.20,0.07,-0.64,-0.55
4.309,-0.07,0.01,-0.20,0.05,-0.62,-0.54
4.31,-0.07,-0.01,-0.20,0.05,-0.62,-0.54
4.319,-0.07,-0.03,-0.20,0.05,-0.62,-0.54
4.321,-0.07,-0.03,-0.20,0.04,-0.60,-0.56
4.322,-0.07,-0.03,-0.20,0.04,-0.57,-0.49
4.322,-0.07,-0.04,-0.20,0.04,-0.57,-0.49
4.324,-0.07,-0.06,-0.20,0.04,-0.57,-0.49
4.325,-0.07,-0.06,-0.20,0.03,-0.57,-0.52
4.333,-0.07,-0.06,-0.20,0.01,-0.54,-0.54
4.335,-0.07,-0.07,-0.21,0.01,-0.54,-0.54
4.336,-0.07,-0.07,-0.21,0.01,-0.51,-0.51
4.336,-0.07,-0.08,-0.21,0.01,-0.51,-0.51
4.34,-0.08,-0.09,-0.21,0.01,-0.51,-0.51
4.34,-0.08,-0.09,-0.21,0.04,-0.47,-0.51
4.344,-0.09,-0.08,-0.21,0.04,-0.47,-0.51
4.345,-0.09,-0.08,-0.21,0.09,-0.47,-0.45
4.349,-0.09,-0.08,-0.21,0.11,-0.45,-0.43
4.351,-0.10,-0.07,-0.22,0.11,-0.45,-0.43
4.355,-0.10,-0.07,-0.22,0.11,-0.45,-0.43
4.355,-0.10,-0.07,-0.22,0.09,-0.45,-0.46
4.359,-0.10,-0.07,-0.22,0.07,-0.42,-0.48
4.36,-0.12,-0.06,-0.23,0.07,-0.42,-0.48
4.365,-0.13,-0.04,-0.23,0.07,-0.42,-0.48
4.367,-0.13,-0.04,-0.23,0.05,-0.40,-0.54
4.37,-0.14,-0.03,-0.24,0.05,-0.40,-0.54
4.371,-0.14,-0.03,-0.24,0.02,-0.38,-0.57
4.375,-0.14,-0.03,-0.24,-0.00,-0.39,-0.58
4.376,-0.16,-0.02,-0.25,-0.00,-0.39,-0.58
4.38,-0.18,-0.02,-0.25,-0.00,-0.39,-0.58
4.382,-0.18,-0.02,-0.25,-0.07,-0.39,-0.52
4.385,-0.19,-0.02,-0.25,-0.07,-0.39,-0.52
4.386,-0.19,-0.02,-0.25,-0.09,-0.36,-0.50
4.39,-0.21,-0.02,-0.25,-0.09,-0.36,-0.50
4.39,-0.21,-0.02,-0.25,-0.13,-0.35,-0.47
4.397,-0.21,-0.02,-0.25,-0.18,-0.36,-0.39
4.4,-0.22,-0.03,-0.24,-0.18,-0.36,-0.39
4.401,-0.22,-0.03,-0.24,-0.19,-0.32,-0.27
4.402,-0.23,-0.04,-0.24,-0.19,-0.32,-0.27
4.405,-0.23,-0.05,-0.24,-0.19,-0.32,-0.27
4.406,-0.23,-0.05,-0.24,-0.22,-0.26,-0.17
4.41,-0.23,-0.07,-0.24,-0.22,-0.26,-0.17
4.411,-0.23,-0.07,-0.24,-0.23,-0.23,-0.12
4.421,-0.23,-0.07,-0.24,-0.22,-0.22,-0.05
4.422,-0.22,-0.07,-0.23,-0.22,-0.22,-0.05
4.423,-0.22,-0.08,-0.23,-0.22,-0.22,-0.05
4.424,-0.22,-0.08,-0.23,-0.19,-0.16,-0.01
4.425,-0.21,-0.09,-0.22,-0.19,-0.16,-0.01
4.427,-0.21,-0.09,-0.22,-0.25,-0.12,0.01
4.437,-0.21,-0.09,-0.22,-0.25,-0.14,0.04
4.439,-0.21,-0.09,-0.22,-0.25,-0.14,0.04
4.44,-0.21,-0.09,-0.21,-0.25,-0.14,0.04
4.441,-0.21,-0.09,-0.21,-0.20,-0.12,0.03
4.441,-0.22,-0.08,-0.21,-0.20,-0.12,0.03
4.442,-0.22,-0.08,-0.21,-0.17,-0.09,0.03
4.448,-0.22,-0.07,-0.21,-0.17,-0.09,0.03
4.45,-0.22,-0.07,-0.21,-0.18,-0.05,0.02
4.451,-0.23,-0.05,-0.21,-0.18,-0.05,0.02
4.452,-0.23,-0.05,-0.21,-0.19,-0.04,0.04
4.455,-0.23,-0.05,-0.21,-0.17,-0.01,0.05
4.456,-0.24,-0.03,-0.21,-0.17,-0.01,0.05
4.46,-0.24,-0.02,-0.20,-0.17,-0.01,0.05
4.461,-0.24,-0.02,-0.20,-0.17,0.03,0.07
4.466,-0.25,-0.01,-0.20,-0.17,0.03,0.07
4.468,-0.25,-0.01,-0.20,-0.22,0.06,0.08
4.47,-0.25,0.00,-0.20,-0.22,0.06,0.08
4.471,-0.25,0.00,-0.20,-0.25,0.07,0.08
4.475,-0.25,0.01,-0.19,-0.25,0.07,0.08
4.476,-0.25,0.01,-0.19,-0.27,0.08,0.08
4.48,-0.25,0.01,-0.19,-0.27,0.08,0.08
4.483,-0.25,0.01,-0.19,-0.27,0.09,0.12
4.485,-0.24,0.01,-0.18,-0.27,0.09,0.12
4.486,-0.24,0.01,-0.18,-0.29,0.11,0.17
4.493,-0.23,0.00,-0.17,-0.29,0.11,0.17
4.494,-0.23,0.00,-0.17,-0.29,0.13,0.15
4.495,-0.23,0.00,-0.17,-0.34,0.16,0.10
4.498,-0.22,-0.01,-0.16,-0.34,0.16,0.10
4.502,-0.22,-0.01,-0.16,-0.28,0.19,0.20
4.505,-0.22,-0.02,-0.15,-0.28,0.19,0.20
4.506,-0.22,-0.02,-0.15,-0.22,0.22,0.23
4.507,-0.20,-0.04,-0.14,-0.22,0.22,0.23
4.51,-0.19,-0.06,-0.14,-0.22,0.22,0.23
4.511,-0.19,-0.06,-0.14,-0.26,0.23,0.22
4.517,-0.18,-0.08,-0.13,-0.26,0.23,0.22
4.519,-0.18,-0.08,-0.13,-0.18,0.25,0.23
4.534,-0.16,-0.10,-0.12,-0.18,0.25,0.23
4.535,-0.16,-0.10,-0.12,-0.14,0.31,0.21
4.536,-0.15,-0.11,-0.12,-0.14,0.31,0.21
4.537,-0.15,-0.11,-0.12,-0.18,0.36,0.18
4.538,-0.15,-0.11,-0.12,-0.10,0.39,0.22
4.539,-0.14,-0.12,-0.11,-0.10,0.39,0.22
4.539,-0.13,-0.14,-0.11,-0.10,0.39,0.22
4.54,-0.13,-0.14,-0.11,-0.02,0.40,0.25
4.541,-0.12,-0.15,-0.11,-0.02,0.40,0.25
4.542,-0.12,-0.15,-0.11,0.01,0.48,0.27
4.552,-0.11,-0.16,-0.11,0.01,0.48,0.27
4.554,-0.11,-0.16,-0.11,0.07,0.51,0.32
4.555,-0.10,-0.16,-0.12,0.07,0.51,0.32
4.556,-0.10,-0.16,-0.12,0.10,0.54,0.33
4.557,-0.09,-0.17,-0.13,0.10,0.54,0.33
4.558,-0.09,-0.17,-0.13,0.16,0.57,0.36
4.561,-0.08,-0.16,-0.14,0.16,0.57,0.36
4.562,-0.08,-0.16,-0.14,0.18,0.57,0.33
4.566,-0.08,-0.15,-0.16,0.18,0.57,0.33
4.568,-0.08,-0.15,-0.16,0.24,0.62,0.33
4.571,-0.07,-0.14,-0.17,0.24,0.62,0.33
4.572,-0.07,-0.14,-0.17,0.29,0.64,0.33
4.576,-0.07,-0.13,-0.19,0.29,0.64,0.33
4.577,-0.07,-0.13,-0.19,0.31,0.62,0.36
4.581,-0.07,-0.13,-0.19,0.34,0.61,0.33
4.583,-0.07,-0.12,-0.21,0.34,0.61,0.33
4.586,-0.07,-0.10,-0.23,0.34,0.61,0.33
4.586,-0.07,-0.10,-0.23,0.32,0.65,0.28
4.591,-0.07,-0.08,-0.25,0.32,0.65,0.28
4.591,-0.07,-0.08,-0.25,0.35,0.69,0.25
4.596,-0.07,-0.08,-0.25,0.38,0.66,0.23
4.598,-0.08,-0.07,-0.27,0.38,0.66,0.23
4.601,-0.09,-0.05,-0.29,0.38,0.66,0.23
4.602,-0.09,-0.05,-0.29,0.39,0.64,0.21
4.606,-0.09,-0.05,-0.29,0.41,0.65,0.21
4.607,-0.09,-0.04,-0.31,0.41,0.65,0.21
4.611,-0.09,-0.03,-0.34,0.41,0.65,0.21
4.612,-0.09,-0.03,-0.34,0.42,0.63,0.19
4.616,-0.10,-0.02,-0.36,0.42,0.63,0.19
4.618,-0.10,-0.02,-0.36,0.46,0.63,0.16
4.621,-0.10,-0.02,-0.36,0.50,0.56,0.07
4.622,-0.10,-0.01,-0.39,0.50,0.56,0.07
4.626,-0.11,-0.00,-0.41,0.50,0.56,0.07
4.627,-0.11,-0.00,-0.41,0.51,0.55,0.01
4.631,-0.12,-0.01,-0.44,0.51,0.55,0.01
4.633,-0.12,-0.01,-0.44,0.58,0.50,-0.07
4.637,-0.12,-0.01,-0.44,0.64,0.43,-0.15
4.637,-0.14,-0.02,-0.47,0.64,0.43,-0.15
4.641,-0.17,-0.02,-0.50,0.64,0.43,-0.15
4.642,-0.17,-0.02,-0.50,0.62,0.35,-0.16
4.646,-0.19,-0.04,-0.53,0.62,0.35,-0.16
4.649,-0.19,-0.04,-0.53,0.60,0.28,-0.12
4.652,-0.22,-0.06,-0.56,0.60,0.28,-0.12
4.653,-0.22,-0.06,-0.56,0.54,0.21,-0.12
4.657,-0.22,-0.06,-0.56,0.52,0.15,0.05
4.657,-0.25,-0.07,-0.58,0.52,0.15,0.05
4.663,-0.27,-0.09,-0.60,0.52,0.15,0.05
4.665,-0.27,-0.09,-0.60,0.45,0.11,0.27
4.666,-0.28,-0.11,-0.61,0.45,0.11,0.27
4.667,-0.28,-0.11,-0.61,0.42,0.09,0.53
4.671,-0.28,-0.13,-0.63,0.42,0.09,0.53
4.672,-0.28,-0.13,-0.63,0.41,0.08,0.66
4.677,-0.28,-0.13,-0.63,0.42,0.12,0.81
4.678,-0.28,-0.14,-0.64,0.42,0.12,0.81
4.687,-0.27,-0.13,-0.66,0.42,0.12,0.81
4.688,-0.27,-0.13,-0.66,0.42,0.07,0.80
4.689,-0.26,-0.12,-0.67,0.42,0.07,0.80
4.691,-0.26,-0.12,-0.67,0.42,-0.02,0.74
4.701,-0.27,-0.10,-0.69,0.42,-0.02,0.74
4.703,-0.28,-0.07,-0.71,0.42,-0.02,0.74
4.704,-0.28,-0.07,-0.71,0.34,-0.01,0.73
4.705,-0.28,-0.07,-0.71,0.26,-0.07,0.56
4.705,-0.31,-0.03,-0.73,0.26,-0.07,0.56
4.706,-0.31,-0.03,-0.73,0.19,-0.12,0.51
4.707,-0.34,0.02,-0.74,0.19,-0.12,0.51
4.708,-0.34,0.02,-0.74,0.11,-0.18,0.50
4.714,-0.34,0.02,-0.74,-0.02,-0.19,0.48
4.715,-0.37,0.07,-0.75,-0.02,-0.19,0.48
4.717,-0.37,0.07,-0.75,-0.17,-0.21,0.50
4.719,-0.39,0.13,-0.75,-0.17,-0.21,0.50
4.722,-0.42,0.18,-0.75,-0.17,-0.21,0.50
4.723,-0.42,0.18,-0.75,-0.36,-0.26,0.54
4.727,-0.44,0.23,-0.74,-0.36,-0.26,0.54
4.728,-0.44,0.23,-0.74,-0.46,-0.25,0.66
4.732,-0.44,0.23,-0.74,-0.55,-0.24,0.60
4.734,-0.43,0.28,-0.73,-0.55,-0.24,0.60
4.737,-0.43,0.32,-0.71,-0.55,-0.24,0.60
4.738,-0.43,0.32,-0.71,-0.76,-0.23,0.59
4.742,-0.42,0.34,-0.68,-0.76,-0.23,0.59
4.743,-0.42,0.34,-0.68,-0.88,-0.20,0.59
4.748,-0.42,0.34,-0.68,-0.99,-0.19,0.44
4.751,-0.40,0.35,-0.65,-0.99,-0.19,0.44
4.753,-0.40,0.35,-0.65,-1.08,-0.20,0.31
4.753,-0.37,0.35,-0.62,-1.08,-0.20,0.31
4.758,-0.37,0.35,-0.62,-1.11,-0.23,0.26
4.759,-0.35,0.34,-0.58,-1.11,-0.23,0.26
4.765,-0.35,0.34,-0.58,-1.15,-0.25,0.17
4.767,-0.31,0.32,-0.55,-1.15,-0.25,0.17
4.768,-0.29,0.29,-0.51,-1.15,-0.25,0.17
4.769,-0.29,0.29,-0.51,-1.20,-0.19,0.07
4.783,-0.25,0.25,-0.47,-1.20,-0.19,0.07
4.786,-0.25,0.25,-0.47,-1.19,-0.21,0.01
4.788,-0.22,0.21,-0.43,-1.19,-0.21,0.01
4.789,-0.22,0.21,-0.43,-1.13,-0.21,-0.05
4.789,-0.22,0.21,-0.43,-1.05,-0.17,-0.17
4.79,-0.18,0.16,-0.39,-1.05,-0.17,-0.17
4.791,-0.18,0.16,-0.39,-0.97,-0.22,-0.19
4.792,-0.15,0.11,-0.35,-0.97,-0.22,-0.19
4.793,-0.15,0.11,-0.35,-0.87,-0.18,-0.25
4.793,-0.12,0.05,-0.31,-0.87,-0.18,-0.25
4.798,-0.12,0.05,-0.31,-0.76,-0.14,-0.28
4.799,-0.09,-0.00,-0.28,-0.76,-0.14,-0.28
4.803,-0.06,-0.06,-0.25,-0.76,-0.14,-0.28
4.804,-0.06,-0.06,-0.25,-0.61,-0.16,-0.30
4.809,-0.06,-0.06,-0.25,-0.41,-0.10,-0.33
4.81,-0.03,-0.11,-0.22,-0.41,-0.10,-0.33
4.823,-0.01,-0.16,-0.20,-0.41,-0.10,-0.33
4.825,-0.01,-0.16,-0.20,-0.23,-0.06,-0.34
4.826,-0.01,-0.16,-0.20,-0.04,-0.01,-0.38
4.827,0.01,-0.21,-0.20,-0.04,-0.01,-0.38
4.828,0.01,-0.25,-0.20,-0.04,-0.01,-0.38
4.829,0.01,-0.25,-0.20,0.13,0.01,-0.42
4.83,0.01,-0.28,-0.20,0.13,0.01,-0.42
4.831,0.01,-0.28,-0.20,0.28,0.03,-0.46
4.837,0.00,-0.30,-0.22,0.28,0.03,-0.46
4.839,0.00,-0.30,-0.22,0.42,0.04,-0.39
4.839,0.00,-0.30,-0.22,0.53,0.07,-0.34
4.84,-0.01,-0.32,-0.25,0.53,0.07,-0.34
4.843,-0.03,-0.32,-0.28,0.53,0.07,-0.34
4.844,-0.03,-0.32,-0.28,0.58,0.08,-0.30
4.848,-0.03,-0.32,-0.28,0.62,0.04,-0.25
4.849,-0.06,-0.31,-0.32,0.62,0.04,-0.25
4.853,-0.06,-0.31,-0.32,0.68,0.02,-0.21
4.854,-0.09,-0.30,-0.35,0.68,0.02,-0.21
4.858,-0.09,-0.30,-0.35,0.67,-0.03,-0.14
4.859,-0.12,-0.28,-0.39,0.67,-0.03,-0.14
4.864,-0.12,-0.28,-0.39,0.63,-0.03,-0.02
4.866,-0.15,-0.24,-0.42,0.63,-0.03,-0.02
4.868,-0.15,-0.24,-0.42,0.55,-0.06,0.08
4.869,-0.18,-0.20,-0.46,0.55,-0.06,0.08
4.873,-0.18,-0.20,-0.46,0.44,-0.08,0.10
4.874,-0.21,-0.15,-0.49,0.44,-0.08,0.10
4.88,-0.21,-0.15,-0.49,0.30,-0.14,0.20
4.883,-0.23,-0.10,-0.52,0.30,-0.14,0.20
4.884,-0.23,-0.10,-0.52,0.14,-0.13,0.30
4.885,-0.26,-0.06,-0.55,0.14,-0.13,0.30
4.888,-0.26,-0.06,-0.55,-0.05,-0.14,0.43
4.889,-0.27,-0.01,-0.56,-0.05,-0.14,0.43
4.893,-0.27,-0.01,-0.56,-0.20,-0.16,0.55
4.894,-0.27,0.03,-0.57,-0.20,-0.16,0.55
4.9,-0.27,0.03,-0.57,-0.31,-0.19,0.65
4.902,-0.26,0.07,-0.57,-0.31,-0.19,0.65
4.904,-0.26,0.07,-0.57,-0.43,-0.21,0.69
4.905,-0.24,0.10,-0.56,-0.43,-0.21,0.69
4.908,-0.24,0.10,-0.56,-0.53,-0.21,0.64
4.909,-0.21,0.13,-0.55,-0.53,-0.21,0.64
4.914,-0.21,0.13,-0.55,-0.61,-0.18,0.53
4.916,-0.17,0.15,-0.54,-0.61,-0.18,0.53
4.919,-0.14,0.17,-0.52,-0.61,-0.18,0.53
4.92,-0.14,0.17,-0.52,-0.68,-0.20,0.36
4.924,-0.14,0.17,-0.52,-0.71,-0.23,0.19
4.925,-0.10,0.18,-0.50,-0.71,-0.23,0.19
4.929,-0.07,0.19,-0.48,-0.71,-0.23,0.19
4.93,-0.07,0.19,-0.48,-0.76,-0.21,-0.04
4.934,-0.05,0.19,-0.46,-0.76,-0.21,-0.04
4.936,-0.05,0.19,-0.46,-0.76,-0.18,-0.18
4.939,-0.05,0.19,-0.46,-0.72,-0.19,-0.32
4.94,-0.03,0.19,-0.43,-0.72,-0.19,-0.32
4.944,-0.01,0.19,-0.41,-0.72,-0.19,-0.32
4.945,-0.01,0.19,-0.41,-0.67,-0.21,-0.46
4.95,-0.01,0.19,-0.41,-0.58,-0.19,-0.58
4.951,0.02,0.18,-0.39,-0.58,-0.19,-0.58
4.954,0.02,0.18,-0.39,-0.45,-0.18,-0.72
4.955,0.03,0.17,-0.38,-0.45,-0.18,-0.72
4.959,0.03,0.17,-0.38,-0.37,-0.20,-0.87
4.96,0.05,0.16,-0.36,-0.37,-0.20,-0.87
4.972,0.06,0.14,-0.35,-0.37,-0.20,-0.87
4.974,0.06,0.14,-0.35,-0.25,-0.21,-0.99
4.975,0.06,0.14,-0.35,-0.12,-0.21,-1.15
4.976,0.07,0.12,-0.34,-0.12,-0.21,-1.15
4.981,0.07,0.10,-0.34,-0.12,-0.21,-1.15
4.983,0.07,0.10,-0.34,-0.02,-0.19,-1.32
4.987,0.07,0.10,-0.34,0.10,-0.23,-1.43
4.988,0.07,0.07,-0.34,0.10,-0.23,-1.43
4.989,0.07,0.07,-0.34,0.17,-0.21,-1.48
4.99,0.06,0.05,-0.34,0.17,-0.21,-1.48
4.991,0.06,0.05,-0.34,0.26,-0.19,-1.57
4.991,0.04,0.02,-0.36,0.26,-0.19,-1.57
4.994,0.02,-0.01,-0.37,0.26,-0.19,-1.57
4.997,0.02,-0.01,-0.37,0.32,-0.23,-1.58
5.0,-0.00,-0.03,-0.39,0.32,-0.23,-1.58
5.001,-0.00,-0.03,-0.39,0.37,-0.23,-1.61
5.004,-0.03,-0.06,-0.40,0.37,-0.23,-1.61
5.005,-0.03,-0.06,-0.40,0.42,-0.25,-1.55
5.009,-0.06,-0.08,-0.42,0.42,-0.25,-1.55
5.01,-0.06,-0.08,-0.42,0.43,-0.28,-1.44
5.015,-0.06,-0.08,-0.42,0.42,-0.30,-1.21
5.017,-0.09,-0.10,-0.44,0.42,-0.30,-1.21
5.02,-0.09,-0.10,-0.44,0.44,-0.31,-1.06
5.021,-0.12,-0.11,-0.45,0.44,-0.31,-1.06
5.039,-0.14,-0.13,-0.46,0.44,-0.31,-1.06
5.04,-0.14,-0.13,-0.46,0.36,-0.36,-0.88
5.041,-0.14,-0.13,-0.46,0.29,-0.39,-0.71
5.042,-0.16,-0.14,-0.46,0.29,-0.39,-0.71
5.043,-0.16,-0.14,-0.46,0.22,-0.40,-0.50
5.044,-0.18,-0.15,-0.46,0.22,-0.40,-0.50
5.046,-0.18,-0.15,-0.46,0.17,-0.44,-0.28
5.046,-0.19,-0.16,-0.46,0.17,-0.44,-0.28
5.047,-0.19,-0.17,-0.45,0.17,-0.44,-0.28
5.048,-0.19,-0.17,-0.45,0.13,-0.46,-0.06
5.051,-0.19,-0.17,-0.44,0.13,-0.46,-0.06
5.052,-0.19,-0.17,-0.44,0.09,-0.47,0.11
5.054,-0.19,-0.17,-0.44,0.05,-0.45,0.34
5.055,-0.19,-0.17,-0.43,0.05,-0.45,0.34
5.059,-0.19,-0.17,-0.43,-0.00,-0.41,0.43
5.06,-0.18,-0.16,-0.41,-0.00,-0.41,0.43
5.065,-0.17,-0.15,-0.40,-0.00,-0.41,0.43
5.066,-0.17,-0.15,-0.40,-0.05,-0.40,0.51
5.069,-0.17,-0.15,-0.40,-0.07,-0.37,0.53
5.07,-0.15,-0.14,-0.38,-0.07,-0.37,0.53
5.075,-0.15,-0.14,-0.38,-0.16,-0.33,0.56
5.075,-0.14,-0.12,-0.36,-0.16,-0.33,0.56
5.086,-0.13,-0.10,-0.34,-0.16,-0.33,0.56
5.088,-0.13,-0.10,-0.34,-0.16,-0.26,0.55
5.089,-0.12,-0.07,-0.32,-0.16,-0.26,0.55
5.09,-0.12,-0.07,-0.32,-0.17,-0.21,0.57
5.091,-0.12,-0.04,-0.30,-0.17,-0.21,0.57
5.092,-0.12,-0.04,-0.30,-0.22,-0.17,0.57
5.095,-0.10,-0.03,-0.28,-0.22,-0.17,0.57
5.096,-0.10,-0.03,-0.28,-0.23,-0.14,0.50
5.1,-0.10,-0.03,-0.28,-0.22,-0.10,0.48
5.101,-0.09,-0.01,-0.26,-0.22,-0.10,0.48
5.106,-0.07,0.01,-0.25,-0.22,-0.10,0.48
5.107,-0.07,0.01,-0.25,-0.21,-0.07,0.46
5.11,-0.07,0.01,-0.25,-0.21,-0.07,0.41
5.111,-0.06,0.01,-0.23,-0.21,-0.07,0.41
5.115,-0.06,0.01,-0.23,-0.17,-0.05,0.34
5.116,-0.04,0.01,-0.21,-0.17,-0.05,0.34
5.12,-0.02,0.01,-0.20,-0.17,-0.05,0.34
5.121,-0.02,0.01,-0.20,-0.16,-0.04,0.18
5.125,-0.02,0.01,-0.20,-0.15,-0.06,0.10
5.126,-0.00,-0.00,-0.18,-0.15,-0.06,0.10
5.131,0.01,-0.02,-0.17,-0.15,-0.06,0.10
5.133,0.01,-0.02,-0.17,-0.11,-0.08,0.04
5.135,0.03,-0.04,-0.15,-0.11,-0.08,0.04
5.136,0.03,-0.04,-0.15,-0.07,-0.02,-0.02
5.14,0.03,-0.04,-0.15,0.01,0.01,-0.08
5.141,0.04,-0.06,-0.14,0.01,0.01,-0.08
5.148,0.04,-0.08,-0.13,0.01,0.01,-0.08
5.15,0.04,-0.08,-0.13,0.10,0.05,-0.15
5.151,0.06,-0.10,-0.13,0.10,0.05,-0.15
5.152,0.06,-0.10,-0.13,0.12,0.13,-0.18
5.155,0.06,-0.10,-0.13,0.19,0.18,-0.23
5.156,0.06,-0.11,-0.13,0.19,0.18,-0.23
5.16,0.06,-0.11,-0.13,0.26,0.30,-0.31
5.161,0.07,-0.12,-0.13,0.26,0.30,-0.31
5.166,0.07,-0.12,-0.14,0.26,0.30,-0.31
5.167,0.07,-0.12,-0.14,0.32,0.37,-0.44
5.171,0.07,-0.12,-0.14,0.31,0.39,-0.46
5.172,0.07,-0.12,-0.15,0.31,0.39,-0.46
5.175,0.07,-0.12,-0.15,0.37,0.47,-0.57
5.176,0.06,-0.12,-0.17,0.37,0.47,-0.57
5.18,0.06,-0.11,-0.19,0.37,0.47,-0.57
5.183,0.06,-0.11,-0.19,0.36,0.51,-0.66
5.186,0.04,-0.11,-0.22,0.36,0.51,-0.66
5.187,0.04,-0.11,-0.22,0.34,0.49,-0.68
5.19,0.04,-0.11,-0.22,0.33,0.47,-0.71
5.191,0.02,-0.10,-0.24,0.33,0.47,-0.71
5.198,0.02,-0.10,-0.24,0.32,0.50,-0.70
5.2,0.00,-0.09,-0.27,0.32,0.50,-0.70
5.201,0.00,-0.09,-0.27,0.32,0.47,-0.66
5.202,-0.01,-0.09,-0.29,0.32,0.47,-0.66
5.205,-0.03,-0.08,-0.32,0.32,0.47,-0.66
5.206,-0.03,-0.08,-0.32,0.35,0.43,-0.62
5.211,-0.03,-0.08,-0.32,0.37,0.34,-0.58
5.212,-0.04,-0.07,-0.35,0.37,0.34,-0.58
5.217,-0.04,-0.07,-0.35,0.37,0.27,-0.56
5.218,-0.06,-0.07,-0.37,0.37,0.27,-0.56
5.22,-0.06,-0.07,-0.37,0.33,0.20,-0.61
5.221,-0.07,-0.07,-0.40,0.33,0.20,-0.61
5.226,-0.09,-0.08,-0.42,0.33,0.20,-0.61
5.227,-0.09,-0.08,-0.42,0.30,0.11,-0.62
5.24,-0.12,-0.09,-0.44,0.30,0.11,-0.62
5.242,-0.12,-0.09,-0.44,0.29,-0.00,-0.55
5.243,-0.12,-0.09,-0.44,0.22,-0.08,-0.38
5.244,-0.14,-0.11,-0.45,0.22,-0.08,-0.38
5.247,-0.14,-0.11,-0.45,0.15,-0.13,-0.28
5.248,-0.16,-0.13,-0.46,0.15,-0.13,-0.28
5.25,-0.16,-0.13,-0.46,0.10,-0.21,-0.09
5.251,-0.18,-0.15,-0.46,0.10,-0.21,-0.09
5.252,-0.20,-0.17,-0.46,0.10,-0.21,-0.09
5.253,-0.20,-0.17,-0.46,0.02,-0.25,0.12
5.26,-0.20,-0.17,-0.46,0.00,-0.28,0.37
5.263,-0.20,-0.20,-0.46,0.00,-0.28,0.37
5.264,-0.20,-0.22,-0.45,0.00,-0.28,0.37
5.265,-0.20,-0.22,-0.45,0.02,-0.26,0.66
5.267,-0.20,-0.22,-0.45,-0.04,-0.23,0.85
5.268,-0.18,-0.24,-0.45,-0.04,-0.23,0.85
5.271,-0.18,-0.24,-0.45,-0.08,-0.21,0.95
5.272,-0.17,-0.24,-0.44,-0.08,-0.21,0.95
5.302,-0.17,-0.24,-0.44,-0.14,-0.18,1.05
5.302,-0.15,-0.24,-0.44,-0.14,-0.18,1.05
5.303,-0.15,-0.24,-0.44,-0.17,-0.19,1.02
5.304,-0.13,-0.23,-0.43,-0.17,-0.19,1.02
5.305,-0.12,-0.22,-0.43,-0.17,-0.19,1.02
5.306,-0.12,-0.22,-0.43,-0.19,-0.14,1.05
5.306,-0.12,-0.22,-0.43,-0.20,-0.14,1.13
5.307,-0.11,-0.19,-0.42,-0.20,-0.14,1.13
5.308,-0.10,-0.16,-0.42,-0.20,-0.14,1.13
5.309,-0.10,-0.16,-0.42,-0.22,-0.12,1.09
5.309,-0.10,-0.11,-0.42,-0.22,-0.12,1.09
5.31,-0.10,-0.11,-0.42,-0.26,-0.08,1.01
5.311,-0.10,-0.11,-0.42,-0.31,-0.08,0.89
5.311,-0.10,-0.04,-0.42,-0.31,-0.08,0.89
5.312,-0.10,-0.04,-0.42,-0.37,-0.14,0.76
5.313,-0.10,0.02,-0.41,-0.37,-0.14,0.76
5.316,-0.10,0.02,-0.41,-0.40,-0.13,0.62
5.318,-0.10,0.09,-0.40,-0.40,-0.13,0.62
5.321,-0.10,0.09,-0.40,-0.39,-0.12,0.47
5.322,-0.11,0.14,-0.39,-0.39,-0.12,0.47
5.326,-0.11,0.19,-0.38,-0.39,-0.12,0.47
5.327,-0.11,0.19,-0.38,-0.41,-0.09,0.36
5.331,-0.11,0.19,-0.38,-0.44,-0.11,0.23
5.332,-0.12,0.23,-0.36,-0.44,-0.11,0.23
5.336,-0.11,0.25,-0.35,-0.44,-0.11,0.23
5.337,-0.11,0.25,-0.35,-0.50,-0.10,0.13
5.341,-0.11,0.25,-0.35,-0.50,-0.08,0.01
5.342,-0.11,0.27,-0.33,-0.50,-0.08,0.01
5.354,-0.10,0.26,-0.32,-0.50,-0.08,0.01
5.355,-0.10,0.26,-0.32,-0.50,-0.08,-0.10
5.356,-0.09,0.25,-0.30,-0.50,-0.08,-0.10
5.357,-0.09,0.25,-0.30,-0.51,-0.06,-0.27
5.358,-0.09,0.25,-0.30,-0.53,-0.03,-0.40
5.359,-0.08,0.22,-0.28,-0.53,-0.03,-0.40
5.369,-0.08,0.22,-0.28,-0.49,-0.04,-0.47
5.371,-0.07,0.18,-0.26,-0.49,-0.04,-0.47
5.372,-0.07,0.18,-0.26,-0.41,0.01,-0.52
5.373,-0.06,0.15,-0.24,-0.41,0.01,-0.52
5.374,-0.04,0.11,-0.23,-0.41,0.01,-0.52
5.375,-0.04,0.11,-0.23,-0.39,0.04,-0.60
5.377,-0.03,0.08,-0.22,-0.39,0.04,-0.60
5.377,-0.03,0.08,-0.22,-0.38,0.07,-0.63
5.382,-0.03,0.08,-0.22,-0.31,0.10,-0.68
5.384,-0.03,0.04,-0.21,-0.31,0.10,-0.68
5.387,-0.02,0.03,-0.21,-0.31,0.10,-0.68
5.388,-0.02,0.03,-0.21,-0.28,0.11,-0.82
5.392,-0.02,0.03,-0.21,-0.27,0.11,-0.90
5.393,-0.02,0.02,-0.20,-0.27,0.11,-0.90
5.397,-0.02,0.02,-0.20,-0.25,0.15,-0.97
5.4,-0.04,0.01,-0.20,-0.25,0.15,-0.97
5.402,-0.04,0.01,-0.20,-0.23,0.22,-0.97
5.403,-0.05,0.00,-0.20,-0.23,0.22,-0.97
5.407,-0.07,0.01,-0.20,-0.23,0.22,-0.97
5.408,-0.07,0.01,-0.20,-0.22,0.23,-0.96
5.414,-0.07,0.01,-0.20,-0.23,0.27,-0.99
5.416,-0.09,0.01,-0.20,-0.23,0.27,-0.99
5.417,-0.09,0.01,-0.20,-0.26,0.29,-0.99
5.418,-0.10,0.03,-0.21,-0.26,0.29,-0.99
5.422,-0.10,0.03,-0.21,-0.26,0.28,-1.03
5.423,-0.12,0.04,-0.21,-0.26,0.28,-1.03
5.427,-0.12,0.04,-0.21,-0.29,0.26,-0.98
5.429,-0.13,0.05,-0.21,-0.29,0.26,-0.98
5.433,-0.15,0.06,-0.21,-0.29,0.26,-0.98
5.436,-0.15,0.06,-0.21,-0.30,0.27,-0.94
5.438,-0.15,0.06,-0.21,-0.32,0.27,-0.93
5.439,-0.17,0.06,-0.21,-0.32,0.27,-0.93
5.443,-0.17,0.06,-0.21,-0.35,0.24,-0.87
5.446,-0.18,0.06,-0.21,-0.35,0.24,-0.87
5.451,-0.18,0.06,-0.21,-0.36,0.22,-0.81
5.453,-0.19,0.05,-0.20,-0.36,0.22,-0.81
5.454,-0.19,0.05,-0.20,-0.39,0.20,-0.78
5.455,-0.19,0.04,-0.19,-0.39,0.20,-0.78
5.457,-0.19,0.04,-0.19,-0.40,0.16,-0.66
5.458,-0.20,0.02,-0.18,-0.40,0.16,-0.66
5.464,-0.20,-0.00,-0.17,-0.40,0.16,-0.66
5.466,-0.20,-0.00,-0.17,-0.44,0.18,-0.58
5.467,-0.20,-0.00,-0.17,-0.45,0.16,-0.47
5.468,-0.19,-0.03,-0.16,-0.45,0.16,-0.47
5.472,-0.19,-0.03,-0.16,-0.45,0.16,-0.35
5.473,-0.19,-0.06,-0.15,-0.45,0.16,-0.35
5.478,-0.19,-0.06,-0.15,-0.44,0.16,-0.25
5.479,-0.17,-0.08,-0.14,-0.44,0.16,-0.25
5.483,-0.17,-0.08,-0.14,-0.43,0.15,-0.15
5.485,-0.17,-0.11,-0.12,-0.43,0.15,-0.15
5.487,-0.17,-0.11,-0.12,-0.45,0.20,-0.07
5.489,-0.15,-0.12,-0.11,-0.45,0.20,-0.07
5.493,-0.14,-0.13,-0.09,-0.45,0.20,-0.07
5.494,-0.14,-0.13,-0.09,-0.44,0.20,-0.02
5.508,-0.14,-0.13,-0.07,-0.44,0.20,-0.02
5.51,-0.14,-0.13,-0.07,-0.40,0.23,0.01
5.511,-0.13,-0.13,-0.06,-0.40,0.23,0.01
5.513,-0.13,-0.13,-0.06,-0.39,0.27,0.01
5.515,-0.13,-0.12,-0.05,-0.39,0.27,0.01
5.516,-0.13,-0.12,-0.05,-0.33,0.23,0.04
5.517,-0.13,-0.12,-0.05,-0.27,0.25,0.11
5.519,-0.13,-0.12,-0.04,-0.27,0.25,0.11
5.52,-0.13,-0.12,-0.04,-0.24,0.35,0.15
5.521,-0.13,-0.10,-0.03,-0.24,0.35,0.15
5.524,-0.13,-0.09,-0.03,-0.24,0.35,0.15
5.526,-0.13,-0.09,-0.03,-0.20,0.40,0.14
5.544,-0.13,-0.09,-0.03,-0.20,0.35,0.24
5.545,-0.12,-0.08,-0.02,-0.20,0.35,0.24
5.546,-0.12,-0.08,-0.02,-0.17,0.35,0.28
5.547,-0.12,-0.07,-0.01,-0.17,0.35,0.28
5.548,-0.12,-0.07,-0.01,-0.16,0.42,0.33
5.549,-0.12,-0.06,-0.01,-0.16,0.42,0.33
5.55,-0.12,-0.06,-0.01,-0.12,0.42,0.37
5.55,-0.10,-0.05,-0.01,-0.12,0.42,0.37
5.551,-0.10,-0.05,-0.01,-0.08,0.44,0.43
5.552,-0.09,-0.04,-0.00,-0.08,0.44,0.43
5.554,-0.09,-0.04,-0.00,-0.09,0.48,0.43
5.556,-0.08,-0.04,0.00,-0.09,0.48,0.43
5.559,-0.08,-0.04,0.00,-0.04,0.51,0.41
5.56,-0.07,-0.04,-0.00,-0.04,0.51,0.41
5.564,-0.07,-0.04,-0.00,-0.00,0.48,0.31
5.566,-0.05,-0.04,0.00,-0.00,0.48,0.31
5.568,-0.05,-0.04,0.00,0.02,0.51,0.29
5.569,-0.04,-0.04,0.00,0.02,0.51,0.29
5.573,-0.04,-0.04,0.00,0.07,0.53,0.27
5.574,-0.03,-0.03,0.00,0.07,0.53,0.27
5.58,-0.03,-0.03,0.00,0.06,0.54,0.22
5.582,-0.03,-0.02,-0.00,0.06,0.54,0.22
5.583,-0.03,-0.02,-0.00,0.09,0.55,0.17
5.584,-0.02,-0.01,-0.01,0.09,0.55,0.17
5.588,-0.01,0.01,-0.01,0.09,0.55,0.17
5.589,-0.01,0.01,-0.01,0.12,0.59,0.15
5.593,-0.01,0.01,-0.01,0.15,0.63,0.08
5.594,-0.01,0.02,-0.02,0.15,0.63,0.08
5.598,-0.01,0.04,-0.03,0.15,0.63,0.08
5.6,-0.01,0.04,-0.03,0.19,0.63,0.02
5.603,-0.01,0.04,-0.03,0.17,0.64,-0.04
5.604,-0.01,0.06,-0.05,0.17,0.64,-0.04
5.608,-0.01,0.06,-0.05,0.18,0.63,-0.13
5.609,-0.02,0.09,-0.06,0.18,0.63,-0.13
5.613,-0.02,0.10,-0.08,0.18,0.63,-0.13
5.615,-0.02,0.10,-0.08,0.15,0.67,-0.28
5.619,-0.03,0.12,-0.10,0.15,0.67,-0.28
5.619,-0.03,0.12,-0.10,0.12,0.70,-0.42
5.623,-0.04,0.14,-0.12,0.12,0.70,-0.42
5.625,-0.04,0.14,-0.12,0.12,0.69,-0.53
5.638,-0.05,0.16,-0.13,0.12,0.69,-0.53
5.639,-0.05,0.16,-0.13,0.06,0.67,-0.59
5.641,-0.06,0.17,-0.15,0.06,0.67,-0.59
5.641,-0.06,0.17,-0.15,-0.01,0.67,-0.61
5.642,-0.07,0.18,-0.16,-0.01,0.67,-0.61
5.644,-0.07,0.18,-0.16,-0.08,0.64,-0.66
5.645,-0.07,0.18,-0.16,-0.15,0.59,-0.74
5.646,-0.09,0.19,-0.17,-0.15,0.59,-0.74
5.653,-0.09,0.19,-0.17,-0.24,0.56,-0.80
5.655,-0.10,0.19,-0.18,-0.24,0.56,-0.80
5.656,-0.10,0.19,-0.18,-0.28,0.54,-0.84
5.657,-0.11,0.18,-0.18,-0.28,0.54,-0.84
5.66,-0.11,0.18,-0.18,-0.33,0.48,-0.82
5.661,-0.12,0.18,-0.19,-0.33,0.48,-0.82
5.664,-0.12,0.18,-0.19,-0.36,0.39,-0.82
5.666,-0.13,0.17,-0.19,-0.36,0.39,-0.82
5.669,-0.14,0.15,-0.19,-0.36,0.39,-0.82
5.67,-0.14,0.15,-0.19,-0.37,0.33,-0.84
5.674,-0.15,0.13,-0.19,-0.37,0.33,-0.84
5.675,-0.15,0.13,-0.19,-0.37,0.21,-0.85
5.681,-0.16,0.10,-0.19,-0.37,0.21,-0.85
5.683,-0.16,0.10,-0.19,-0.39,0.12,-0.89
5.685,-0.16,0.10,-0.19,-0.49,0.07,-0.85
5.686,-0.18,0.07,-0.18,-0.49,0.07,-0.85
5.689,-0.18,0.07,-0.18,-0.55,0.02,-0.81
5.69,-0.19,0.04,-0.17,-0.55,0.02,-0.81
5.694,-0.21,-0.00,-0.15,-0.55,0.02,-0.81
5.695,-0.21,-0.00,-0.15,-0.60,0.02,-0.64
5.699,-0.22,-0.04,-0.13,-0.60,0.02,-0.64
5.702,-0.22,-0.04,-0.13,-0.63,-0.05,-0.41
5.704,-0.22,-0.04,-0.13,-0.64,-0.10,-0.20
5.705,-0.23,-0.08,-0.11,-0.64,-0.10,-0.20
5.709,-0.23,-0.11,-0.09,-0.64,-0.10,-0.20
5.71,-0.23,-0.11,-0.09,-0.63,-0.12,0.01
5.717,-0.22,-0.14,-0.06,-0.63,-0.12,0.01
5.719,-0.22,-0.14,-0.06,-0.64,-0.12,0.19
5.72,-0.22,-0.14,-0.06,-0.66,-0.09,0.36
5.721,-0.21,-0.17,-0.04,-0.66,-0.09,0.36
5.725,-0.21,-0.17,-0.04,-0.67,-0.06,0.52
5.725,-0.20,-0.19,-0.01,-0.67,-0.06,0.52
5.731,-0.19,-0.20,0.02,-0.67,-0.06,0.52
5.733,-0.19,-0.20,0.02,-0.67,-0.00,0.63
5.735,-0.18,-0.21,0.04,-0.67,-0.00,0.63
5.736,-0.18,-0.21,0.04,-0.65,0.02,0.74
5.739,-0.17,-0.22,0.06,-0.65,0.02,0.74
5.74,-0.17,-0.22,0.06,-0.61,0.07,0.86
5.745,-0.16,-0.21,0.08,-0.61,0.07,0.86
5.746,-0.16,-0.21,0.08,-0.57,0.12,1.00
5.753,-0.16,-0.21,0.08,-0.56,0.16,1.15
5.757,-0.14,-0.19,0.10,-0.56,0.16,1.15
5.759,-0.12,-0.17,0.11,-0.56,0.16,1.15
5.76,-0.12,-0.17,0.11,-0.53,0.27,1.16
5.761,-0.10,-0.14,0.12,-0.53,0.27,1.16
5.762,-0.10,-0.14,0.12,-0.52,0.29,1.15
5.767,-0.09,-0.10,0.13,-0.52,0.29,1.15
5.769,-0.09,-0.10,0.13,-0.51,0.31,1.14
5.77,-0.08,-0.07,0.13,-0.51,0.31,1.14
5.771,-0.08,-0.07,0.13,-0.51,0.35,1.12
5.775,-0.06,-0.04,0.14,-0.51,0.35,1.12
5.776,-0.06,-0.04,0.14,-0.45,0.39,1.07
5.793,-0.06,-0.04,0.14,-0.39,0.40,1.03
5.794,-0.05,-0.00,0.14,-0.39,0.40,1.03
5.796,-0.05,-0.00,0.14,-0.40,0.35,0.90
5.797,-0.04,0.04,0.14,-0.40,0.35,0.90
5.798,-0.04,0.04,0.14,-0.37,0.38,0.78
5.799,-0.03,0.06,0.14,-0.37,0.38,0.78
5.8,-0.01,0.08,0.13,-0.37,0.38,0.78
5.801,-0.01,0.08,0.13,-0.32,0.39,0.70
5.802,-0.00,0.09,0.13,-0.32,0.39,0.70
5.803,-0.00,0.09,0.13,-0.26,0.35,0.62
5.812,0.01,0.10,0.12,-0.26,0.35,0.62
5.814,0.01,0.10,0.12,-0.21,0.36,0.58
5.815,0.01,0.10,0.12,-0.14,0.36,0.51
5.816,0.02,0.11,0.12,-0.14,0.36,0.51
5.817,0.02,0.11,0.12,-0.01,0.33,0.45
5.817,0.04,0.10,0.10,-0.01,0.33,0.45
5.822,0.04,0.10,0.10,0.09,0.30,0.32
5.823,0.05,0.10,0.09,0.09,0.30,0.32
5.825,0.05,0.10,0.09,0.14,0.31,0.19
5.826,0.06,0.11,0.07,0.14,0.31,0.19
5.831,0.06,0.11,0.07,0.21,0.27,0.02
5.832,0.06,0.11,0.05,0.21,0.27,0.02
5.835,0.05,0.12,0.03,0.21,0.27,0.02
5.836,0.05,0.12,0.03,0.23,0.17,-0.15
5.84,0.05,0.12,0.03,0.27,0.15,-0.31
5.84,0.03,0.13,0.01,0.27,0.15,-0.31
5.845,0.03,0.13,0.01,0.33,0.14,-0.37
5.846,0.01,0.14,-0.01,0.33,0.14,-0.37
5.85,-0.02,0.14,-0.02,0.33,0.14,-0.37
5.851,-0.02,0.14,-0.02,0.36,0.08,-0.41
5.856,-0.05,0.15,-0.05,0.36,0.08,-0.41
5.857,-0.05,0.15,-0.05,0.35,0.07,-0.39
5.86,-0.08,0.16,-0.07,0.35,0.07,-0.39
5.861,-0.08,0.16,-0.07,0.35,0.03,-0.33
5.866,-0.08,0.16,-0.07,0.28,-0.02,-0.31
5.868,-0.10,0.16,-0.08,0.28,-0.02,-0.31
5.87,-0.12,0.16,-0.09,0.28,-0.02,-0.31
5.871,-0.12,0.16,-0.09,0.22,-0.05,-0.19
5.875,-0.13,0.15,-0.10,0.22,-0.05,-0.19
5.876,-0.13,0.15,-0.10,0.17,-0.10,-0.13
5.88,-0.15,0.14,-0.11,0.17,-0.10,-0.13
5.882,-0.15,0.14,-0.11,0.13,-0.10,-0.06
5.886,-0.15,0.14,-0.11,0.08,-0.12,0.02
5.887,-0.15,0.13,-0.11,0.08,-0.12,0.02
5.891,-0.15,0.13,-0.11,0.08,-0.12,0.02
5.892,-0.15,0.13,-0.11,0.00,-0.14,0.02
5.897,-0.16,0.12,-0.10,0.00,-0.14,0.02
5.899,-0.16,0.12,-0.10,-0.08,-0.14,0.04
5.901,-0.16,0.12,-0.09,-0.08,-0.14,0.04
5.902,-0.16,0.12,-0.09,-0.14,-0.18,0.06
5.906,-0.16,0.12,-0.09,-0.21,-0.19,0.12
5.907,-0.16,0.12,-0.08,-0.21,-0.19,0.12
5.911,-0.16,0.12,-0.06,-0.21,-0.19,0.12
5.912,-0.16,0.12,-0.06,-0.25,-0.15,0.12
5.926,-0.16,0.13,-0.04,-0.25,-0.15,0.12
5.929,-0.16,0.13,-0.04,-0.27,-0.13,0.16
5.93,-0.16,0.13,-0.04,-0.30,-0.12,0.16
5.932,-0.15,0.13,-0.03,-0.30,-0.12,0.16
5.933,-0.14,0.13,-0.01,-0.30,-0.12,0.16
5.934,-0.14,0.13,-0.01,-0.34,-0.11,0.20
5.935,-0.13,0.14,0.00,-0.34,-0.11,0.20
5.936,-0.13,0.14,0.00,-0.37,-0.08,0.17
5.944,-0.12,0.15,0.02,-0.37,-0.08,0.17
5.946,-0.12,0.15,0.02,-0.41,-0.04,0.12
5.947,-0.11,0.15,0.04,-0.41,-0.04,0.12
5.949,-0.11,0.15,0.04,-0.42,-0.05,0.12
5.95,-0.11,0.15,0.04,-0.49,-0.03,0.02
5.951,-0.10,0.15,0.05,-0.49,-0.03,0.02
5.952,-0.09,0.15,0.07,-0.49,-0.03,0.02
5.952,-0.09,0.15,0.07,-0.55,-0.08,-0.09
5.956,-0.09,0.16,0.09,-0.55,-0.08,-0.09
5.958,-0.09,0.16,0.09,-0.55,-0.06,-0.17
5.961,-0.09,0.16,0.11,-0.55,-0.06,-0.17
5.962,-0.09,0.16,0.11,-0.56,-0.08,-0.19
5.965,-0.08,0.15,0.14,-0.56,-0.08,-0.19
5.968,-0.08,0.15,0.14,-0.58,-0.10,-0.21
5.972,-0.08,0.14,0.16,-0.58,-0.10,-0.21
5.973,-0.08,0.14,0.16,-0.57,-0.06,-0.21
5.976,-0.07,0.13,0.18,-0.57,-0.06,-0.21
5.977,-0.07,0.13,0.18,-0.60,-0.09,-0.15
5.982,-0.07,0.13,0.18,-0.54,-0.08,-0.15
5.983,-0.06,0.11,0.20,-0.54,-0.08,-0.15
5.987,-0.06,0.11,0.20,-0.54,-0.09,-0.15
5.988,-0.04,0.10,0.22,-0.54,-0.09,-0.15
5.991,-0.04,0.10,0.22,-0.50,-0.06,-0.13
5.992,-0.03,0.08,0.25,-0.50,-0.06,-0.13
5.999,-0.03,0.08,0.25,-0.54,-0.06,-0.15
6.001,-0.01,0.06,0.27,-0.54,-0.06,-0.15
6.003,-0.01,0.06,0.27,-0.43,-0.14,-0.20
6.004,0.00,0.04,0.29,-0.43,-0.14,-0.20
6.006,0.02,0.03,0.31,-0.43,-0.14,-0.20
6.007,0.02,0.03,0.31,-0.38,-0.17,-0.18
6.011,0.03,0.01,0.33,-0.38,-0.17,-0.18
6.012,0.03,0.01,0.33,-0.35,-0.17,-0.18
6.017,0.04,-0.00,0.35,-0.35,-0.17,-0.18
6.018,0.04,-0.00,0.35,-0.29,-0.17,-0.23
6.022,0.04,-0.01,0.37,-0.29,-0.17,-0.23
6.023,0.04,-0.01,0.37,-0.27,-0.21,-0.24
6.027,0.04,-0.03,0.40,-0.27,-0.21,-0.24
6.027,0.04,-0.03,0.40,-0.27,-0.24,-0.20
6.047,0.04,-0.03,0.40,-0.22,-0.26,-0.14
6.051,0.04,-0.04,0.43,-0.22,-0.26,-0.14
6.052,0.05,-0.06,0.45,-0.22,-0.26,-0.14
6.053,0.05,-0.06,0.45,-0.18,-0.24,-0.01
6.054,0.06,-0.08,0.48,-0.18,-0.24,-0.01
6.055,0.06,-0.08,0.48,-0.12,-0.25,0.09
6.056,0.06,-0.08,0.48,-0.06,-0.25,0.20
6.057,0.08,-0.10,0.50,-0.06,-0.25,0.20
6.058,0.08,-0.10,0.50,0.01,-0.27,0.31
6.059,0.10,-0.12,0.52,0.01,-0.27,0.31
6.059,0.13,-0.14,0.54,0.01,-0.27,0.31
6.06,0.13,-0.14,0.54,0.09,-0.24,0.36
6.071,0.15,-0.16,0.56,0.09,-0.24,0.36
6.073,0.15,-0.16,0.56,0.18,-0.20,0.35
6.074,0.18,-0.18,0.56,0.18,-0.20,0.35
6.075,0.18,-0.18,0.56,0.25,-0.20,0.32
6.076,0.20,-0.19,0.57,0.25,-0.20,0.32
6.078,0.20,-0.19,0.57,0.30,-0.21,0.26
6.079,0.20,-0.19,0.57,0.41,-0.19,0.16
6.079,0.21,-0.19,0.57,0.41,-0.19,0.16
6.086,0.21,-0.19,0.57,0.45,-0.19,0.11
6.088,0.20,-0.20,0.57,0.45,-0.19,0.11
6.089,0.20,-0.20,0.57,0.48,-0.18,0.09
6.09,0.20,-0.19,0.56,0.48,-0.18,0.09
6.092,0.19,-0.18,0.55,0.48,-0.18,0.09
6.094,0.19,-0.18,0.55,0.54,-0.18,0.09
6.098,0.19,-0.18,0.55,0.61,-0.23,0.12
6.101,0.18,-0.17,0.54,0.61,-0.23,0.12
6.102,0.17,-0.15,0.52,0.61,-0.23,0.12
6.103,0.17,-0.15,0.52,0.65,-0.24,0.15
6.107,0.16,-0.13,0.50,0.65,-0.24,0.15
6.108,0.16,-0.13,0.50,0.62,-0.27,0.13
6.114,0.15,-0.11,0.49,0.62,-0.27,0.13
6.115,0.15,-0.11,0.49,0.61,-0.31,0.14
6.117,0.14,-0.09,0.47,0.61,-0.31,0.14
6.118,0.14,-0.09,0.47,0.60,-0.36,0.10
6.122,0.13,-0.08,0.46,0.60,-0.36,0.10
6.123,0.13,-0.08,0.46,0.58,-0.36,0.10
6.127,0.13,-0.07,0.45,0.58,-0.36,0.10
6.128,0.13,-0.07,0.45,0.54,-0.38,0.08
6.132,0.12,-0.06,0.43,0.54,-0.38,0.08
6.134,0.12,-0.06,0.43,0.54,-0.40,0.06
6.137,0.11,-0.06,0.42,0.54,-0.40,0.06
6.138,0.11,-0.06,0.42,0.50,-0.41,0.05
6.142,0.11,-0.06,0.42,0.48,-0.42,0.05
6.143,0.11,-0.06,0.41,0.48,-0.42,0.05
6.148,0.11,-0.06,0.41,0.45,-0.42,-0.02
6.15,0.11,-0.06,0.39,0.45,-0.42,-0.02
6.153,0.11,-0.06,0.39,0.43,-0.42,-0.06
6.155,0.11,-0.06,0.38,0.43,-0.42,-0.06
6.158,0.11,-0.06,0.38,0.41,-0.40,-0.16
6.159,0.11,-0.07,0.36,0.41,-0.40,-0.16
6.176,0.10,-0.07,0.35,0.41,-0.40,-0.16
6.179,0.10,-0.07,0.35,0.33,-0.38,-0.24
6.181,0.09,-0.07,0.34,0.33,-0.38,-0.24
6.182,0.09,-0.07,0.34,0.30,-0.43,-0.27
6.184,0.09,-0.07,0.34,0.29,-0.45,-0.32
6.187,0.08,-0.07,0.33,0.29,-0.45,-0.32
6.188,0.08,-0.07,0.33,0.27,-0.42,-0.26
6.189,0.07,-0.08,0.32,0.27,-0.42,-0.26
6.19,0.07,-0.08,0.32,0.23,-0.34,-0.23
6.19,0.05,-0.08,0.31,0.23,-0.34,-0.23
6.191,0.05,-0.08,0.31,0.22,-0.31,-0.24
6.193,0.05,-0.09,0.30,0.22,-0.31,-0.24
6.194,0.05,-0.09,0.28,0.22,-0.31,-0.24
6.195,0.05,-0.09,0.28,0.20,-0.30,-0.23
6.199,0.05,-0.09,0.28,0.22,-0.28,-0.20
6.2,0.05,-0.10,0.27,0.22,-0.28,-0.20
6.203,0.05,-0.10,0.27,0.27,-0.23,-0.14
6.205,0.05,-0.10,0.26,0.27,-0.23,-0.14
6.208,0.05,-0.10,0.26,0.27,-0.18,-0.16
6.209,0.05,-0.12,0.25,0.27,-0.18,-0.16
6.213,0.05,-0.12,0.25,0.31,-0.15,-0.18
6.215,0.05,-0.12,0.23,0.31,-0.15,-0.18
6.219,0.05,-0.12,0.23,0.37,-0.15,-0.25
6.22,0.05,-0.13,0.21,0.37,-0.15,-0.25
6.223,0.05,-0.13,0.21,0.39,-0.13,-0.25
6.224,0.04,-0.14,0.19,0.39,-0.13,-0.25
6.23,0.04,-0.14,0.19,0.41,-0.12,-0.30
6.232,0.03,-0.14,0.17,0.41,-0.12,-0.30
6.234,0.03,-0.14,0.17,0.43,-0.10,-0.38
6.235,0.01,-0.13,0.14,0.43,-0.10,-0.38
6.238,0.01,-0.13,0.14,0.42,-0.09,-0.32
6.239,-0.01,-0.12,0.11,0.42,-0.09,-0.32
6.243,-0.01,-0.12,0.11,0.41,-0.09,-0.27
6.245,-0.03,-0.11,0.09,0.41,-0.09,-0.27
6.249,-0.03,-0.11,0.09,0.39,-0.10,-0.26
6.25,-0.05,-0.10,0.06,0.39,-0.10,-0.26
6.253,-0.07,-0.08,0.03,0.39,-0.10,-0.26
6.254,-0.07,-0.08,0.03,0.35,-0.06,-0.24
6.258,-0.07,-0.08,0.03,0.27,-0.10,-0.20
6.259,-0.09,-0.06,0.01,0.27,-0.10,-0.20
6.263,-0.09,-0.06,0.01,0.23,-0.07,-0.12
6.265,-0.10,-0.04,-0.02,0.23,-0.07,-0.12
6.269,-0.12,-0.03,-0.04,0.23,-0.07,-0.12
6.27,-0.12,-0.03,-0.04,0.17,-0.05,-0.08
6.273,-0.13,-0.02,-0.06,0.17,-0.05,-0.08
6.274,-0.13,-0.02,-0.06,0.11,-0.07,-0.05
6.281,-0.13,-0.01,-0.07,0.11,-0.07,-0.05
6.283,-0.13,-0.01,-0.07,0.08,-0.05,-0.06
6.305,-0.13,-0.01,-0.09,0.08,-0.05,-0.06
6.306,-0.13,-0.01,-0.09,-0.00,-0.01,-0.07
6.308,-0.13,-0.01,-0.09,-0.05,-0.03,-0.07
6.309,-0.14,-0.00,-0.11,-0.05,-0.03,-0.07
6.31,-0.14,-0.00,-0.11,-0.11,-0.04,-0.12
6.311,-0.14,-0.00,-0.12,-0.11,-0.04,-0.12
6.312,-0.14,-0.00,-0.12,-0.13,-0.03,-0.17
6.313,-0.15,-0.00,-0.13,-0.13,-0.03,-0.17
6.315,-0.15,-0.01,-0.14,-0.13,-0.03,-0.17
6.316,-0.15,-0.01,-0.14,-0.16,-0.06,-0.13
6.316,-0.15,-0.01,-0.14,-0.23,-0.04,-0.22
6.317,-0.16,-0.01,-0.15,-0.23,-0.04,-0.22
6.318,-0.16,-0.01,-0.15,-0.29,-0.05,-0.25
6.318,-0.16,-0.01,-0.15,-0.29,-0.05,-0.25
6.319,-0.17,-0.02,-0.15,-0.29,-0.05,-0.25
6.32,-0.17,-0.02,-0.15,-0.31,-0.08,-0.14
6.324,-0.17,-0.02,-0.15,-0.31,-0.08,-0.14
6.325,-0.17,-0.02,-0.15,-0.37,-0.09,-0.10
6.328,-0.17,-0.02,-0.15,-0.46,-0.06,-0.05
6.329,-0.17,-0.03,-0.15,-0.46,-0.06,-0.05
6.34,-0.17,-0.03,-0.15,-0.48,-0.06,0.01
6.341,-0.17,-0.03,-0.15,-0.48,-0.06,0.01
6.343,-0.17,-0.03,-0.15,-0.44,-0.07,0.07
6.344,-0.16,-0.04,-0.14,-0.44,-0.07,0.07
6.346,-0.16,-0.04,-0.14,-0.53,-0.09,0.07
6.347,-0.15,-0.04,-0.13,-0.53,-0.09,0.07
6.349,-0.15,-0.04,-0.13,-0.59,-0.04,0.09
6.35,-0.15,-0.05,-0.13,-0.59,-0.04,0.09
6.354,-0.14,-0.05,-0.12,-0.59,-0.04,0.09
6.355,-0.14,-0.05,-0.12,-0.59,-0.05,0.09
6.359,-0.13,-0.06,-0.11,-0.59,-0.05,0.09
6.36,-0.13,-0.06,-0.11,-0.59,0.02,0.13
6.365,-0.12,-0.06,-0.10,-0.59,0.02,0.13
6.367,-0.12,-0.06,-0.10,-0.59,0.03,0.11
6.369,-0.12,-0.06,-0.10,-0.59,0.01,0.10
6.37,-0.12,-0.06,-0.09,-0.59,0.01,0.10
6.374,-0.12,-0.05,-0.09,-0.59,0.01,0.10
6.375,-0.12,-0.05,-0.09,-0.56,0.05,0.07
6.38,-0.12,-0.05,-0.08,-0.56,0.05,0.07
6.382,-0.12,-0.05,-0.08,-0.56,0.12,0.07
6.384,-0.12,-0.04,-0.08,-0.56,0.12,0.07
6.385,-0.12,-0.04,-0.08,-0.57,0.13,0.05
6.389,-0.12,-0.04,-0.08,-0.56,0.13,-0.01
6.39,-0.12,-0.03,-0.07,-0.56,0.13,-0.01
6.394,-0.12,-0.02,-0.07,-0.56,0.13,-0.01
6.395,-0.12,-0.02,-0.07,-0.52,0.17,-0.03
6.399,-0.12,-0.01,-0.07,-0.52,0.17,-0.03
6.401,-0.12,-0.01,-0.07,-0.50,0.19,-0.04
6.404,-0.13,-0.00,-0.07,-0.50,0.19,-0.04
6.405,-0.13,-0.00,-0.07,-0.48,0.22,-0.07
6.409,-0.13,-0.00,-0.07,-0.46,0.25,-0.03
6.41,-0.13,0.00,-0.07,-0.46,0.25,-0.03
6.414,-0.13,-0.00,-0.07,-0.46,0.25,-0.03
6.416,-0.13,-0.00,-0.07,-0.43,0.25,0.06
6.419,-0.13,-0.00,-0.07,-0.43,0.25,0.06
6.42,-0.13,-0.00,-0.07,-0.51,0.27,0.05
6.424,-0.12,-0.01,-0.07,-0.51,0.27,0.05
6.426,-0.12,-0.01,-0.07,-0.49,0.27,0.06
6.43,-0.12,-0.01,-0.07,-0.42,0.27,0.15
6.432,-0.11,-0.01,-0.07,-0.42,0.27,0.15
6.436,-0.11,-0.01,-0.07,-0.41,0.28,0.20
6.438,-0.10,-0.02,-0.07,-0.41,0.28,0.20
6.44,-0.09,-0.03,-0.07,-0.41,0.28,0.20
6.441,-0.09,-0.03,-0.07,-0.41,0.30,0.17
6.459,-0.08,-0.03,-0.07,-0.41,0.30,0.17
6.463,-0.08,-0.03,-0.07,-0.36,0.28,0.14
6.466,-0.08,-0.03,-0.07,-0.31,0.29,0.13
6.468,-0.07,-0.04,-0.07,-0.31,0.29,0.13
6.469,-0.06,-0.04,-0.07,-0.31,0.29,0.13
6.47,-0.06,-0.04,-0.07,-0.25,0.28,0.10
6.471,-0.06,-0.04,-0.07,-0.21,0.27,0.10
6.471,-0.06,-0.05,-0.07,-0.21,0.27,0.10
6.472,-0.06,-0.05,-0.07,-0.20,0.29,0.06
6.473,-0.06,-0.04,-0.07,-0.20,0.29,0.06
6.474,-0.06,-0.04,-0.07,-0.13,0.30,0.04
6.476,-0.06,-0.04,-0.08,-0.13,0.30,0.04
6.477,-0.06,-0.03,-0.09,-0.13,0.30,0.04
6.478,-0.06,-0.03,-0.09,-0.06,0.30,0.05
6.482,-0.06,-0.02,-0.10,-0.06,0.30,0.05
6.484,-0.06,-0.02,-0.10,-0.07,0.31,0.04
6.486,-0.07,-0.01,-0.11,-0.07,0.31,0.04
6.487,-0.07,-0.01,-0.11,-0.03,0.28,-0.01
6.49,-0.07,-0.01,-0.11,-0.02,0.29,-0.02
6.491,-0.07,-0.00,-0.12,-0.02,0.29,-0.02
6.495,-0.08,0.00,-0.14,-0.02,0.29,-0.02
6.496,-0.08,0.00,-0.14,-0.01,0.30,-0.08
6.5,-0.08,0.00,-0.14,0.00,0.30,-0.11
6.502,-0.09,0.01,-0.15,0.00,0.30,-0.11
6.506,-0.09,0.01,-0.15,-0.02,0.25,-0.15
6.507,-0.10,0.02,-0.17,-0.02,0.25,-0.15
6.511,-0.10,0.02,-0.17,-0.03,0.24,-0.18
6.512,-0.11,0.02,-0.18,-0.03,0.24,-0.18
6.517,-0.13,0.03,-0.19,-0.03,0.24,-0.18
6.519,-0.13,0.03,-0.19,-0.03,0.23,-0.16
6.521,-0.13,0.03,-0.19,-0.05,0.14,-0.14
6.522,-0.14,0.02,-0.21,-0.05,0.14,-0.14
6.526,-0.14,0.02,-0.21,-0.07,0.14,-0.12
6.527,-0.15,0.02,-0.22,-0.07,0.14,-0.12
6.533,-0.15,0.02,-0.22,-0.07,0.13,-0.06
6.535,-0.15,0.01,-0.23,-0.07,0.13,-0.06
6.549,-0.16,0.00,-0.24,-0.07,0.13,-0.06
6.552,-0.16,0.00,-0.24,-0.13,0.12,-0.01
6.554,-0.16,-0.01,-0.25,-0.13,0.12,-0.01
6.555,-0.16,-0.01,-0.25,-0.17,0.06,0.04
6.556,-0.16,-0.01,-0.25,-0.23,0.07,0.09
6.557,-0.16,-0.01,-0.26,-0.23,0.07,0.09
6.558,-0.17,-0.02,-0.26,-0.23,0.07,0.09
6.558,-0.17,-0.02,-0.26,-0.30,0.09,0.07
6.559,-0.17,-0.02,-0.26,-0.30,0.09,0.07
6.56,-0.17,-0.02,-0.26,-0.33,0.05,0.05
6.561,-0.17,-0.02,-0.26,-0.36,0.05,0.09
6.562,-0.18,-0.02,-0.26,-0.36,0.05,0.09
6.565,-0.18,-0.02,-0.26,-0.38,0.02,0.12
6.567,-0.19,-0.01,-0.26,-0.38,0.02,0.12
6.57,-0.20,-0.00,-0.27,-0.38,0.02,0.12
6.571,-0.20,-0.00,-0.27,-0.46,-0.01,0.15
6.575,-0.20,0.01,-0.26,-0.46,-0.01,0.15
6.576,-0.20,0.01,-0.26,-0.46,0.02,0.23
6.587,-0.20,0.01,-0.26,-0.48,0.02,0.29
6.588,-0.21,0.02,-0.26,-0.48,0.02,0.29
6.589,-0.21,0.02,-0.26,-0.55,-0.01,0.32
6.59,-0.21,0.04,-0.26,-0.55,-0.01,0.32
6.591,-0.21,0.04,-0.26,-0.58,-0.02,0.27
6.592,-0.21,0.05,-0.26,-0.58,-0.02,0.27
6.607,-0.21,0.05,-0.26,-0.64,-0.04,0.27
6.609,-0.20,0.05,-0.25,-0.64,-0.04,0.27
6.61,-0.20,0.06,-0.24,-0.64,-0.04,0.27
6.611,-0.20,0.06,-0.24,-0.71,-0.06,0.28
6.612,-0.20,0.06,-0.24,-0.78,-0.06,0.30
6.613,-0.20,0.06,-0.22,-0.78,-0.06,0.30
6.614,-0.20,0.06,-0.22,-0.79,-0.09,0.31
6.615,-0.19,0.06,-0.21,-0.79,-0.09,0.31
6.616,-0.18,0.06,-0.19,-0.79,-0.09,0.31
6.616,-0.18,0.06,-0.19,-0.82,-0.06,0.28
6.62,-0.18,0.06,-0.19,-0.83,-0.02,0.30
6.622,-0.17,0.05,-0.17,-0.83,-0.02,0.30
6.626,-0.17,0.05,-0.17,-0.84,-0.02,0.33
6.626,-0.16,0.04,-0.15,-0.84,-0.02,0.33
6.631,-0.15,0.03,-0.13,-0.84,-0.02,0.33
6.632,-0.15,0.03,-0.13,-0.86,-0.00,0.31
6.636,-0.13,0.02,-0.10,-0.86,-0.00,0.31
6.637,-0.13,0.02,-0.10,-0.85,0.03,0.27
6.641,-0.13,0.02,-0.10,-0.79,0.03,0.25
6.641,-0.11,0.02,-0.07,-0.79,0.03,0.25
6.647,-0.11,0.02,-0.07,-0.70,0.10,0.22
6.65,-0.10,0.01,-0.05,-0.70,0.10,0.22
6.651,-0.10,0.01,-0.05,-0.64,0.12,0.17
6.652,-0.08,0.00,-0.03,-0.64,0.12,0.17
6.656,-0.07,-0.01,-0.01,-0.64,0.12,0.17
6.657,-0.07,-0.01,-0.01,-0.59,0.14,0.10
6.661,-0.07,-0.01,-0.01,-0.52,0.20,0.03
6.662,-0.06,-0.01,0.01,-0.52,0.20,0.03
6.667,-0.06,-0.02,0.03,-0.52,0.20,0.03
6.669,-0.06,-0.02,0.03,-0.42,0.28,-0.01
6.671,-0.05,-0.02,0.04,-0.42,0.28,-0.01
6.672,-0.05,-0.02,0.04,-0.36,0.31,-0.08
6.676,-0.05,-0.03,0.05,-0.36,0.31,-0.08
6.677,-0.05,-0.03,0.05,-0.25,0.39,-0.12
6.681,-0.05,-0.04,0.06,-0.25,0.39,-0.12
6.683,-0.05,-0.04,0.06,-0.11,0.45,-0.07
6.686,-0.05,-0.05,0.06,-0.11,0.45,-0.07
6.687,-0.05,-0.05,0.06,-0.02,0.50,-0.05
6.692,-0.04,-0.07,0.05,-0.02,0.50,-0.05
6.693,-0.04,-0.07,0.05,0.08,0.56,-0.06
6.697,-0.04,-0.07,0.05,0.16,0.61,0.01
6.699,-0.04,-0.07,0.04,0.16,0.61,0.01
6.701,-0.03,-0.08,0.03,0.16,0.61,0.01
6.702,-0.03,-0.08,0.03,0.22,0.62,-0.00
6.706,-0.03,-0.08,0.03,0.28,0.65,-0.01
6.707,-0.03,-0.09,0.02,0.28,0.65,-0.01
6.711,-0.03,-0.09,0.02,0.32,0.69,0.03
6.713,-0.03,-0.10,0.00,0.32,0.69,0.03
6.717,-0.03,-0.11,-0.01,0.32,0.69,0.03
6.719,-0.03,-0.11,-0.01,0.37,0.67,0.06
6.722,-0.03,-0.11,-0.01,0.48,0.65,0.10
6.723,-0.02,-0.11,-0.02,0.48,0.65,0.10
6.727,-0.02,-0.11,-0.02,0.58,0.70,0.05
6.728,-0.03,-0.11,-0.04,0.58,0.70,0.05
6.739,-0.03,-0.10,-0.07,0.58,0.70,0.05
6.741,-0.03,-0.10,-0.07,0.61,0.73,-0.00
6.742,-0.03,-0.10,-0.07,0.69,0.70,-0.03
6.743,-0.04,-0.10,-0.09,0.69,0.70,-0.03
6.748,-0.04,-0.10,-0.09,0.82,0.69,-0.01
6.75,-0.05,-0.09,-0.12,0.82,0.69,-0.01
6.751,-0.05,-0.09,-0.12,0.89,0.69,-0.03
6.753,-0.07,-0.09,-0.15,0.89,0.69,-0.03
6.754,-0.07,-0.09,-0.15,0.91,0.65,-0.08
6.755,-0.09,-0.09,-0.19,0.91,0.65,-0.08
6.757,-0.09,-0.09,-0.19,0.91,0.56,-0.04
6.759,-0.11,-0.09,-0.22,0.91,0.56,-0.04
6.762,-0.11,-0.09,-0.22,0.91,0.49,0.05
6.763,-0.14,-0.09,-0.26,0.91,0.49,0.05
6.766,-0.17,-0.09,-0.29,0.91,0.49,0.05
6.768,-0.17,-0.09,-0.29,0.90,0.44,0.16
6.772,-0.17,-0.09,-0.29,0.87,0.41,0.39
6.773,-0.19,-0.10,-0.32,0.87,0.41,0.39
6.777,-0.21,-0.09,-0.34,0.87,0.41,0.39
6.778,-0.21,-0.09,-0.34,0.81,0.38,0.61
6.782,-0.21,-0.09,-0.34,0.75,0.34,0.72
6.785,-0.22,-0.08,-0.37,0.75,0.34,0.72
6.802,-0.22,-0.08,-0.37,0.65,0.31,0.83
6.803,-0.22,-0.06,-0.39,0.65,0.31,0.83
6.805,-0.22,-0.04,-0.42,0.65,0.31,0.83
6.805,-0.22,-0.04,-0.42,0.53,0.25,0.81
6.806,-0.22,-0.02,-0.44,0.53,0.25,0.81
6.807,-0.22,-0.02,-0.44,0.44,0.22,0.82
6.808,-0.23,-0.01,-0.45,0.44,0.22,0.82
6.808,-0.23,-0.01,-0.45,0.30,0.17,0.80
6.809,-0.25,0.02,-0.47,0.30,0.17,0.80
6.81,-0.25,0.02,-0.47,0.19,0.07,0.76
6.813,-0.26,0.04,-0.47,0.19,0.07,0.76
6.815,-0.26,0.04,-0.47,0.04,-0.02,0.75
6.817,-0.27,0.06,-0.47,0.04,-0.02,0.75
6.818,-0.27,0.06,-0.47,-0.10,-0.09,0.80
6.822,-0.27,0.06,-0.47,-0.21,-0.15,0.89
6.823,-0.28,0.08,-0.46,-0.21,-0.15,0.89
6.827,-0.28,0.08,-0.46,-0.34,-0.22,0.98
6.828,-0.27,0.09,-0.45,-0.34,-0.22,0.98
6.832,-0.27,0.09,-0.45,-0.41,-0.23,0.98
6.834,-0.27,0.11,-0.43,-0.41,-0.23,0.98
6.837,-0.25,0.12,-0.41,-0.41,-0.23,0.98
6.838,-0.25,0.12,-0.41,-0.50,-0.22,1.06
6.842,-0.25,0.12,-0.41,-0.61,-0.23,1.03
6.843,-0.22,0.13,-0.38,-0.61,-0.23,1.03
6.848,-0.22,0.13,-0.38,-0.70,-0.24,0.94
6.849,-0.19,0.13,-0.35,-0.70,-0.24,0.94
6.853,-0.17,0.13,-0.32,-0.70,-0.24,0.94
6.853,-0.17,0.13,-0.32,-0.78,-0.22,0.80
6.857,-0.17,0.13,-0.32,-0.87,-0.21,0.60
6.858,-0.15,0.13,-0.29,-0.87,-0.21,0.60
6.872,-0.15,0.13,-0.29,-0.86,-0.21,0.45
6.874,-0.13,0.12,-0.25,-0.86,-0.21,0.45
6.875,-0.11,0.10,-0.22,-0.86,-0.21,0.45
6.875,-0.11,0.10,-0.22,-0.87,-0.16,0.31
6.876,-0.11,0.10,-0.22,-0.86,-0.16,0.23
6.877,-0.10,0.09,-0.19,-0.86,-0.16,0.23
6.878,-0.10,0.09,-0.19,-0.84,-0.16,0.17
6.879,-0.08,0.07,-0.16,-0.84,-0.16,0.17
6.889,-0.08,0.07,-0.16,-0.77,-0.14,0.09
6.89,-0.07,0.06,-0.13,-0.77,-0.14,0.09
6.891,-0.05,0.04,-0.10,-0.77,-0.14,0.09
6.892,-0.05,0.04,-0.10,-0.72,-0.11,0.01
6.892,-0.05,0.04,-0.10,-0.67,-0.13,-0.00
6.893,-0.04,0.02,-0.08,-0.67,-0.13,-0.00
6.898,-0.04,0.02,-0.08,-0.52,-0.05,0.07
6.9,-0.02,-0.01,-0.05,-0.52,-0.05,0.07
6.903,0.00,-0.03,-0.03,-0.52,-0.05,0.07
6.904,0.00,-0.03,-0.03,-0.39,0.01,0.06
6.908,0.00,-0.03,-0.03,-0.31,0.04,-0.07
6.909,0.03,-0.05,-0.01,-0.31,0.04,-0.07
6.914,0.03,-0.05,-0.01,-0.14,0.07,-0.12
6.917,0.05,-0.06,0.00,-0.14,0.07,-0.12
6.918,0.06,-0.08,0.01,-0.14,0.07,-0.12
6.919,0.06,-0.08,0.01,-0.04,0.15,-0.23
6.923,0.06,-0.09,0.01,-0.04,0.15,-0.23
6.924,0.06,-0.09,0.01,0.09,0.21,-0.38
6.928,0.06,-0.09,0.01,0.21,0.27,-0.48
6.929,0.06,-0.11,0.00,0.21,0.27,-0.48
6.933,0.06,-0.11,0.00,0.33,0.28,-0.55
6.935,0.05,-0.11,-0.01,0.33,0.28,-0.55
6.938,0.05,-0.11,-0.01,0.43,0.33,-0.60
6.939,0.04,-0.11,-0.03,0.43,0.33,-0.60
6.943,0.04,-0.11,-0.03,0.46,0.38,-0.61
6.944,0.02,-0.11,-0.05,0.46,0.38,-0.61
6.949,0.02,-0.11,-0.05,0.56,0.38,-0.66
6.951,-0.00,-0.11,-0.08,0.56,0.38,-0.66
6.953,-0.00,-0.11,-0.08,0.64,0.37,-0.64
6.955,-0.02,-0.10,-0.11,0.64,0.37,-0.64
6.958,-0.04,-0.09,-0.15,0.64,0.37,-0.64
6.959,-0.04,-0.09,-0.15,0.59,0.37,-0.70
6.964,-0.04,-0.09,-0.15,0.52,0.38,-0.74
6.967,-0.07,-0.08,-0.18,0.52,0.38,-0.74
6.968,-0.10,-0.06,-0.22,0.52,0.38,-0.74
6.969,-0.10,-0.06,-0.22,0.52,0.33,-0.77
6.974,-0.14,-0.05,-0.25,0.52,0.33,-0.77
6.975,-0.14,-0.05,-0.25,0.44,0.27,-0.77
6.978,-0.17,-0.04,-0.29,0.44,0.27,-0.77
6.979,-0.17,-0.04,-0.29,0.31,0.25,-0.73
6.984,-0.17,-0.04,-0.29,0.18,0.23,-0.66
6.986,-0.20,-0.03,-0.31,0.18,0.23,-0.66
6.988,-0.20,-0.03,-0.31,0.02,0.15,-0.50
6.989,-0.23,-0.02,-0.33,0.02,0.15,-0.50
6.993,-0.23,-0.02,-0.33,-0.09,0.06,-0.36
6.994,-0.26,-0.02,-0.35,-0.09,0.06,-0.36
7.008,-0.26,-0.02,-0.35,-0.19,0.03,-0.20
7.011,-0.27,-0.03,-0.36,-0.19,0.03,-0.20
7.012,-0.28,-0.04,-0.36,-0.19,0.03,-0.20
7.018,-0.28,-0.04,-0.36,-0.31,-0.00,-0.06
7.02,-0.28,-0.05,-0.36,-0.31,-0.00,-0.06
7.023,-0.28,-0.05,-0.36,-0.42,-0.05,0.05
7.025,-0.28,-0.05,-0.36,-0.52,-0.11,0.13
7.026,-0.28,-0.06,-0.36,-0.52,-0.11,0.13
7.027,-0.27,-0.07,-0.35,-0.52,-0.11,0.13
7.027,-0.27,-0.07,-0.35,-0.60,-0.16,0.20
7.029,-0.26,-0.09,-0.34,-0.60,-0.16,0.20
7.03,-0.26,-0.09,-0.34,-0.67,-0.16,0.35
7.03,-0.25,-0.09,-0.32,-0.67,-0.16,0.35
7.031,-0.25,-0.09,-0.32,-0.73,-0.17,0.43
7.035,-0.25,-0.09,-0.32,-0.75,-0.13,0.55
7.036,-0.24,-0.11,-0.31,-0.75,-0.13,0.55
7.05,-0.24,-0.11,-0.31,-0.76,-0.14,0.63
7.051,-0.22,-0.12,-0.28,-0.76,-0.14,0.63
7.054,-0.22,-0.12,-0.28,-0.77,-0.15,0.67
7.055,-0.21,-0.13,-0.26,-0.77,-0.15,0.67
7.057,-0.21,-0.13,-0.26,-0.77,-0.11,0.77
7.059,-0.19,-0.12,-0.24,-0.77,-0.11,0.77
7.06,-0.19,-0.12,-0.24,-0.72,-0.09,0.74
7.06,-0.17,-0.12,-0.22,-0.72,-0.09,0.74
7.062,-0.16,-0.11,-0.19,-0.72,-0.09,0.74
7.063,-0.16,-0.11,-0.19,-0.73,-0.07,0.73
7.066,-0.16,-0.11,-0.19,-0.69,-0.06,0.77
7.068,-0.15,-0.11,-0.17,-0.69,-0.06,0.77
7.069,-0.15,-0.11,-0.17,-0.67,-0.02,0.78
7.07,-0.14,-0.10,-0.15,-0.67,-0.02,0.78
7.074,-0.14,-0.10,-0.15,-0.65,0.04,0.78
7.074,-0.13,-0.09,-0.13,-0.65,0.04,0.78
7.08,-0.13,-0.09,-0.13,-0.60,0.09,0.81
7.082,-0.11,-0.08,-0.12,-0.60,0.09,0.81
7.084,-0.11,-0.08,-0.12,-0.55,0.13,0.86
7.085,-0.10,-0.07,-0.10,-0.55,0.13,0.86
7.089,-0.10,-0.07,-0.10,-0.50,0.17,0.85
7.09,-0.09,-0.07,-0.09,-0.50,0.17,0.85
7.094,-0.09,-0.07,-0.09,-0.44,0.20,0.85
7.095,-0.07,-0.05,-0.08,-0.44,0.20,0.85
7.099,-0.06,-0.04,-0.07,-0.44,0.20,0.85
7.1,-0.06,-0.04,-0.07,-0.40,0.26,0.85
7.104,-0.06,-0.04,-0.07,-0.37,0.28,0.80
7.105,-0.04,-0.03,-0.06,-0.37,0.28,0.80
7.109,-0.04,-0.03,-0.06,-0.33,0.32,0.73
7.11,-0.03,-0.01,-0.05,-0.33,0.32,0.73
7.114,-0.03,-0.01,-0.05,-0.25,0.38,0.67
7.116,-0.01,0.02,-0.05,-0.25,0.38,0.67
7.12,-0.00,0.04,-0.04,-0.25,0.38,0.67
7.12,-0.00,0.04,-0.04,-0.24,0.46,0.60
7.124,0.01,0.06,-0.04,-0.24,0.46,0.60
7.125,0.01,0.06,-0.04,-0.20,0.49,0.53
7.13,0.01,0.06,-0.04,-0.15,0.51,0.43
7.132,0.01,0.09,-0.04,-0.15,0.51,0.43
7.135,0.01,0.09,-0.04,-0.10,0.56,0.35
7.136,0.02,0.11,-0.04,-0.10,0.56,0.35
7.139,0.03,0.12,-0.05,-0.10,0.56,0.35
7.14,0.03,0.12,-0.05,-0.06,0.57,0.32
7.145,0.04,0.14,-0.05,-0.06,0.57,0.32
7.146,0.04,0.14,-0.05,0.01,0.63,0.28
7.156,0.04,0.14,-0.05,0.05,0.64,0.18
7.157,0.05,0.16,-0.06,0.05,0.64,0.18
7.158,0.06,0.18,-0.07,0.05,0.64,0.18
7.159,0.06,0.18,-0.07,0.10,0.66,0.09
7.161,0.07,0.22,-0.08,0.10,0.66,0.09
7.165,0.07,0.22,-0.08,0.21,0.63,0.05
7.166,0.07,0.22,-0.08,0.19,0.66,-0.04
7.167,0.08,0.24,-0.09,0.19,0.66,-0.04
7.173,0.08,0.27,-0.11,0.19,0.66,-0.04
7.175,0.08,0.27,-0.11,0.13,0.70,-0.11
7.176,0.08,0.27,-0.11,0.25,0.67,-0.18
7.176,0.08,0.30,-0.13,0.25,0.67,-0.18
7.181,0.08,0.30,-0.13,0.33,0.62,-0.19
7.183,0.09,0.33,-0.15,0.33,0.62,-0.19
7.186,0.09,0.34,-0.17,0.33,0.62,-0.19
7.187,0.09,0.34,-0.17,0.28,0.66,-0.21
7.19,0.09,0.34,-0.17,0.23,0.61,-0.30
7.191,0.09,0.35,-0.18,0.23,0.61,-0.30
7.195,0.09,0.35,-0.18,0.26,0.59,-0.37
7.196,0.08,0.35,-0.20,0.26,0.59,-0.37
7.201,0.09,0.36,-0.22,0.26,0.59,-0.37
7.203,0.09,0.36,-0.22,0.32,0.53,-0.39
7.205,0.09,0.36,-0.22,0.36,0.46,-0.37
7.206,0.09,0.36,-0.24,0.36,0.46,-0.37
7.21,0.09,0.36,-0.24,0.36,0.42,-0.38
7.211,0.10,0.34,-0.26,0.36,0.42,-0.38
7.215,0.11,0.34,-0.28,0.36,0.42,-0.38
7.217,0.11,0.34,-0.28,0.41,0.37,-0.40
7.22,0.11,0.34,-0.28,0.37,0.27,-0.46
7.221,0.11,0.32,-0.30,0.37,0.27,-0.46
7.225,0.11,0.32,-0.30,0.38,0.17,-0.51
7.226,0.11,0.32,-0.32,0.38,0.17,-0.51
7.231,0.11,0.32,-0.32,0.43,0.06,-0.59
7.233,0.11,0.32,-0.34,0.43,0.06,-0.59
7.235,0.11,0.32,-0.34,0.43,0.02,-0.64
7.236,0.10,0.33,-0.36,0.43,0.02,-0.64
7.24,0.10,0.33,-0.36,0.42,-0.13,-0.51
7.241,0.09,0.36,-0.39,0.42,-0.13,-0.51
7.247,0.09,0.36,-0.39,0.49,-0.26,-0.27
7.25,0.08,0.38,-0.41,0.49,-0.26,-0.27
7.251,0.08,0.38,-0.41,0.55,-0.31,-0.21
7.252,0.08,0.38,-0.41,0.55,-0.31,-0.21
7.255,0.08,0.34,-0.41,0.55,-0.31,-0.21
7.256,0.08,0.34,-0.41,0.40,-0.37,-0.25
7.26,0.08,0.34,-0.41,0.32,-0.37,-0.24
7.261,0.07,0.30,-0.39,0.32,-0.37,-0.24
7.266,0.06,0.27,-0.38,0.32,-0.37,-0.24
7.267,0.06,0.27,-0.38,0.33,-0.44,-0.22
7.271,0.06,0.27,-0.38,0.38,-0.47,-0.13
7.272,0.06,0.24,-0.37,0.38,-0.47,-0.13
7.275,0.06,0.24,-0.37,0.36,-0.45,-0.18
7.276,0.05,0.20,-0.37,0.36,-0.45,-0.18
7.289,0.03,0.18,-0.38,0.36,-0.45,-0.18
7.29,0.03,0.18,-0.38,0.29,-0.46,-0.13
7.291,0.03,0.18,-0.38,0.25,-0.48,-0.00
7.292,0.02,0.16,-0.39,0.25,-0.48,-0.00
7.314,0.02,0.16,-0.39,0.26,-0.49,0.02
7.315,0.02,0.16,-0.39,0.14,-0.52,0.02
7.316,0.02,0.16,-0.39,0.14,-0.52,0.02
7.317,0.01,0.15,-0.39,0.14,-0.52,0.02
7.317,0.01,0.15,-0.39,0.04,-0.52,0.07
7.318,0.01,0.14,-0.39,0.04,-0.52,0.07
7.319,0.00,0.12,-0.38,0.04,-0.52,0.07
7.32,0.00,0.12,-0.38,-0.08,-0.59,0.09
7.321,0.00,0.12,-0.38,-0.12,-0.63,0.16
7.321,0.00,0.10,-0.37,-0.12,-0.63,0.16
7.322,0.00,0.08,-0.35,-0.12,-0.63,0.16
7.323,0.00,0.08,-0.35,-0.20,-0.65,0.16
7.323,0.01,0.07,-0.33,-0.20,-0.65,0.16
7.324,0.01,0.07,-0.33,-0.28,-0.64,0.20
7.327,0.01,0.07,-0.33,-0.26,-0.65,0.24
7.328,0.01,0.05,-0.31,-0.26,-0.65,0.24
7.332,0.03,0.05,-0.28,-0.26,-0.65,0.24
7.333,0.03,0.05,-0.28,-0.25,-0.63,0.29
7.336,0.03,0.05,-0.28,-0.19,-0.59,0.32
7.337,0.05,0.03,-0.25,-0.19,-0.59,0.32
7.341,0.07,0.02,-0.23,-0.19,-0.59,0.32
7.342,0.07,0.02,-0.23,-0.13,-0.57,0.23
7.347,0.09,0.01,-0.20,-0.13,-0.57,0.23
7.348,0.09,0.01,-0.20,-0.08,-0.53,0.06
7.351,0.09,0.01,-0.20,-0.00,-0.47,-0.10
7.352,0.11,0.01,-0.19,-0.00,-0.47,-0.10
7.356,0.11,0.01,-0.19,0.03,-0.44,-0.30
7.356,0.11,0.01,-0.17,0.03,-0.44,-0.30
7.361,0.11,0.01,-0.17,0.04,-0.34,-0.49
7.362,0.11,0.01,-0.17,0.04,-0.34,-0.49
7.366,0.10,0.02,-0.16,0.04,-0.34,-0.49
7.368,0.10,0.02,-0.16,0.08,-0.31,-0.61
7.371,0.10,0.02,-0.16,0.10,-0.29,-0.74
7.371,0.09,0.02,-0.16,0.10,-0.29,-0.74
7.376,0.07,0.03,-0.17,0.10,-0.29,-0.74
7.377,0.07,0.03,-0.17,0.11,-0.24,-0.81
7.381,0.05,0.04,-0.17,0.11,-0.24,-0.81
7.383,0.05,0.04,-0.17,0.06,-0.23,-0.89
7.386,0.05,0.04,-0.17,-0.00,-0.23,-0.96
7.387,0.03,0.05,-0.17,-0.00,-0.23,-0.96
7.391,0.01,0.06,-0.17,-0.00,-0.23,-0.96
7.392,0.01,0.06,-0.17,-0.06,-0.25,-0.98
7.397,0.01,0.06,-0.17,-0.13,-0.26,-0.97
7.399,-0.02,0.06,-0.17,-0.13,-0.26,-0.97
7.401,-0.02,0.06,-0.17,-0.17,-0.26,-0.92
7.402,-0.03,0.07,-0.17,-0.17,-0.26,-0.92
7.406,-0.03,0.07,-0.17,-0.19,-0.27,-0.91
7.407,-0.04,0.08,-0.16,-0.19,-0.27,-0.91
7.411,-0.04,0.08,-0.16,-0.31,-0.27,-0.93
7.412,-0.06,0.08,-0.15,-0.31,-0.27,-0.93
7.417,-0.07,0.09,-0.15,-0.31,-0.27,-0.93
7.418,-0.07,0.09,-0.15,-0.37,-0.27,-0.96
7.421,-0.07,0.09,-0.14,-0.37,-0.27,-0.96
7.422,-0.07,0.09,-0.14,-0.40,-0.31,-0.96
7.427,-0.07,0.09,-0.14,-0.49,-0.29,-0.91
7.428,-0.08,0.08,-0.13,-0.49,-0.29,-0.91
7.443,-0.08,0.08,-0.13,-0.57,-0.29,-0.89
7.445,-0.09,0.07,-0.11,-0.57,-0.29,-0.89
7.446,-0.09,0.07,-0.11,-0.62,-0.33,-0.87
7.447,-0.10,0.07,-0.10,-0.62,-0.33,-0.87
7.448,-0.10,0.06,-0.08,-0.62,-0.33,-0.87
7.449,-0.10,0.06,-0.08,-0.65,-0.28,-0.71
7.45,-0.10,0.06,-0.08,-0.61,-0.29,-0.61
7.451,-0.11,0.07,-0.07,-0.61,-0.29,-0.61
7.452,-0.11,0.07,-0.07,-0.63,-0.27,-0.52
7.452,-0.11,0.08,-0.06,-0.63,-0.27,-0.52
7.456,-0.11,0.09,-0.04,-0.63,-0.27,-0.52
7.457,-0.11,0.09,-0.04,-0.68,-0.22,-0.33
7.462,-0.11,0.08,-0.03,-0.68,-0.22,-0.33
7.463,-0.11,0.08,-0.03,-0.68,-0.21,-0.23
7.469,-0.11,0.08,-0.03,-0.64,-0.18,-0.17
7.471,-0.11,0.07,-0.01,-0.64,-0.18,-0.17
7.472,-0.11,0.07,-0.01,-0.64,-0.13,-0.07
7.472,-0.11,0.07,0.01,-0.64,-0.13,-0.07
7.477,-0.11,0.07,0.01,-0.60,-0.14,-0.04
7.478,-0.10,0.08,0.03,-0.60,-0.14,-0.04
7.482,-0.10,0.09,0.04,-0.60,-0.14,-0.04
7.485,-0.10,0.09,0.04,-0.56,-0.10,0.05
7.487,-0.10,0.09,0.04,-0.57,-0.05,0.13
7.489,-0.10,0.11,0.05,-0.57,-0.05,0.13
7.493,-0.10,0.11,0.05,-0.54,-0.11,0.09
7.494,-0.11,0.14,0.05,-0.54,-0.11,0.09
7.498,-0.11,0.14,0.05,-0.47,-0.18,0.06
7.5,-0.11,0.18,0.05,-0.47,-0.18,0.06
7.502,-0.11,0.25,0.05,-0.47,-0.18,0.06
7.503,-0.11,0.25,0.05,-0.53,0.01,0.29
7.507,-0.11,0.25,0.05,-0.62,0.14,0.47
7.508,-0.10,0.28,0.06,-0.62,0.14,0.47
7.514,-0.10,0.28,0.06,-0.61,0.17,0.51
7.516,-0.11,0.27,0.08,-0.61,0.17,0.51
7.518,-0.11,0.26,0.10,-0.61,0.17,0.51
7.519,-0.11,0.26,0.10,-0.53,0.14,0.51
7.522,-0.11,0.25,0.11,-0.53,0.14,0.51
7.523,-0.11,0.25,0.11,-0.54,0.15,0.47
7.527,-0.11,0.25,0.11,-0.57,0.19,0.50
7.528,-0.10,0.24,0.11,-0.57,0.19,0.50
7.533,-0.10,0.24,0.11,-0.57,0.19,0.47
7.534,-0.09,0.24,0.11,-0.57,0.19,0.47
7.537,-0.09,0.24,0.11,-0.58,0.21,0.44
7.538,-0.07,0.25,0.12,-0.58,0.21,0.44
7.554,-0.06,0.26,0.12,-0.58,0.21,0.44
7.555,-0.06,0.26,0.12,-0.60,0.23,0.40
7.556,-0.04,0.26,0.13,-0.60,0.23,0.40
7.558,-0.04,0.26,0.13,-0.58,0.21,0.37
7.558,-0.04,0.26,0.13,-0.59,0.21,0.34
7.559,-0.04,0.26,0.14,-0.59,0.21,0.34
7.56,-0.04,0.26,0.14,-0.62,0.23,0.36
7.561,-0.03,0.26,0.14,-0.62,0.23,0.36
7.573,-0.03,0.26,0.14,-0.61,0.22,0.31
7.575,-0.02,0.25,0.15,-0.61,0.22,0.31
7.576,-0.01,0.26,0.16,-0.61,0.22,0.31
7.577,-0.01,0.26,0.16,-0.64,0.23,0.29
7.579,-0.00,0.26,0.16,-0.64,0.23,0.29
7.58,-0.00,0.26,0.16,-0.61,0.26,0.28
7.581,-0.00,0.26,0.16,-0.58,0.28,0.25
7.582,0.00,0.25,0.17,-0.58,0.28,0.25
7.582,0.00,0.25,0.17,-0.56,0.29,0.28
7.584,0.01,0.24,0.17,-0.56,0.29,0.28
7.59,0.01,0.24,0.17,-0.49,0.34,0.23
7.592,0.02,0.24,0.17,-0.49,0.34,0.23
7.593,0.02,0.24,0.17,-0.47,0.39,0.17
7.594,0.03,0.24,0.17,-0.47,0.39,0.17
7.598,0.03,0.24,0.17,-0.46,0.39,0.02
7.599,0.04,0.25,0.17,-0.46,0.39,0.02
7.603,0.04,0.25,0.17,-0.49,0.36,-0.15
7.604,0.04,0.26,0.17,-0.49,0.36,-0.15
7.608,0.04,0.26,0.17,-0.46,0.33,-0.25
7.608,0.03,0.27,0.17,-0.46,0.33,-0.25
7.614,0.02,0.27,0.17,-0.46,0.33,-0.25
7.616,0.02,0.27,0.17,-0.49,0.34,-0.36
7.618,0.02,0.27,0.17,-0.50,0.37,-0.50
7.618,0.01,0.28,0.17,-0.50,0.37,-0.50
7.623,0.01,0.28,0.17,-0.48,0.31,-0.51
7.624,-0.01,0.27,0.18,-0.48,0.31,-0.51
7.628,-0.02,0.26,0.19,-0.48,0.31,-0.51
7.629,-0.02,0.26,0.19,-0.49,0.32,-0.48
7.633,-0.02,0.26,0.19,-0.52,0.33,-0.48
7.635,-0.03,0.24,0.20,-0.52,0.33,-0.48
7.638,-0.03,0.24,0.20,-0.55,0.30,-0.45
7.639,-0.04,0.22,0.21,-0.55,0.30,-0.45
7.643,-0.03,0.20,0.22,-0.55,0.30,-0.45
7.645,-0.03,0.20,0.22,-0.56,0.28,-0.45
7.648,-0.03,0.20,0.22,-0.56,0.27,-0.37
7.651,-0.03,0.17,0.23,-0.56,0.27,-0.37
7.653,-0.03,0.13,0.25,-0.56,0.27,-0.37
7.655,-0.03,0.13,0.25,-0.57,0.25,-0.28
7.658,-0.03,0.13,0.25,-0.54,0.25,-0.24
7.659,-0.02,0.09,0.27,-0.54,0.25,-0.24
7.665,-0.02,0.09,0.27,-0.57,0.29,-0.21
7.667,-0.00,0.05,0.29,-0.57,0.29,-0.21
7.669,0.01,0.02,0.33,-0.57,0.29,-0.21
7.67,0.01,0.02,0.33,-0.59,0.31,-0.17
7.673,0.01,0.02,0.33,-0.53,0.30,-0.04
7.674,0.02,-0.03,0.35,-0.53,0.30,-0.04
7.69,0.04,-0.08,0.38,-0.53,0.30,-0.04
7.691,0.04,-0.08,0.38,-0.47,0.33,0.11
7.693,0.04,-0.08,0.38,-0.43,0.41,0.15
7.694,0.06,-0.12,0.40,-0.43,0.41,0.15
