
time,ax,ay,az,wx,wy,wz
0.003,0.05,-0.06,-0.07,0.04,0.12,-0.01
0.004,0.02,-0.03,-0.10,0.04,0.12,-0.01
0.004,0.02,-0.03,-0.10,0.04,0.11,-0.00
0.005,0.02,-0.03,-0.10,0.04,0.11,-0.00
0.005,-0.01,0.00,-0.10,0.04,0.11,-0.00
0.005,-0.01,0.00,-0.10,0.04,0.11,0.01
0.006,-0.01,0.00,-0.10,0.03,0.10,0.01
0.006,-0.02,0.03,-0.09,0.03,0.10,0.01
0.006,-0.02,0.03,-0.09,0.03,0.09,0.01
0.006,-0.02,0.03,-0.09,0.03,0.08,0.02
0.007,-0.01,0.04,-0.10,0.03,0.08,0.02
0.007,-0.01,0.04,-0.10,0.02,0.08,0.02
0.007,-0.01,0.04,-0.10,0.02,0.07,0.02
0.008,0.02,0.05,-0.13,0.02,0.07,0.02
0.008,0.02,0.05,-0.13,0.01,0.07,0.03
0.008,0.02,0.05,-0.13,0.01,0.06,0.03
0.009,0.04,0.03,-0.18,0.01,0.06,0.03
0.009,0.04,0.03,-0.18,-0.01,0.06,0.03
0.009,0.04,0.03,-0.18,-0.01,0.05,0.03
0.009,0.08,0.04,-0.20,-0.01,0.05,0.03
0.016,0.08,0.04,-0.20,-0.02,0.04,0.02
0.016,0.08,0.04,-0.20,-0.03,0.04,0.03
0.016,0.08,0.04,-0.22,-0.03,0.04,0.03
0.016,0.08,0.04,-0.22,-0.04,0.04,0.02
0.017,0.08,0.04,-0.22,-0.05,0.03,0.02
0.017,0.08,0.03,-0.22,-0.05,0.03,0.02
0.03,0.08,0.03,-0.22,-0.06,0.02,0.02
0.03,0.06,0.03,-0.21,-0.06,0.02,0.02
0.03,0.06,0.03,-0.21,-0.07,0.03,0.02
0.03,0.06,0.03,-0.21,-0.08,0.02,0.02
0.03,0.06,0.03,-0.21,-0.08,0.02,0.02
0.031,0.07,0.05,-0.20,-0.08,0.02,0.02
0.031,0.07,0.05,-0.20,-0.09,0.02,0.02
0.031,0.07,0.05,-0.20,-0.09,0.01,0.01
0.031,0.07,0.05,-0.15,-0.09,0.01,0.01
0.031,0.07,0.05,-0.15,-0.09,0.01,0.01
0.034,0.07,0.05,-0.15,-0.09,0.01,0.01
0.034,0.05,0.06,-0.11,-0.09,0.01,0.01
0.034,0.05,0.06,-0.11,-0.10,0.01,0.01
0.037,0.05,0.06,-0.11,-0.10,0.01,0.01
0.037,0.05,0.06,-0.07,-0.10,0.01,0.01
0.038,0.05,0.06,-0.07,-0.10,0.01,0.01
0.041,0.05,0.06,-0.07,-0.09,0.00,0.01
0.041,0.00,0.07,-0.05,-0.09,0.00,0.01
0.042,0.00,0.07,-0.05,-0.09,0.00,0.00
0.045,0.00,0.07,-0.05,-0.09,0.00,0.00
0.045,-0.00,0.07,-0.04,-0.09,0.00,0.00
0.046,-0.00,0.07,-0.04,-0.09,0.01,0.01
0.049,-0.00,0.07,-0.04,-0.09,0.01,0.00
0.049,-0.02,0.06,-0.01,-0.09,0.01,0.00
0.05,-0.02,0.06,-0.01,-0.08,0.01,0.01
0.053,-0.02,0.06,-0.01,-0.08,0.01,0.00
0.053,-0.03,0.06,-0.01,-0.08,0.01,0.00
0.055,-0.03,0.06,-0.01,-0.07,0.01,0.01
0.057,-0.03,0.06,-0.01,-0.07,0.01,0.01
0.057,-0.04,0.05,0.01,-0.07,0.01,0.01
0.058,-0.04,0.05,0.01,-0.06,0.01,0.01
0.06,-0.04,0.05,0.01,-0.06,0.01,0.01
0.061,-0.02,0.05,-0.01,-0.06,0.01,0.01
0.062,-0.02,0.05,-0.01,-0.05,0.02,0.01
0.066,-0.02,0.05,-0.01,-0.04,0.02,0.01
0.066,-0.03,0.05,-0.00,-0.04,0.02,0.01
0.067,-0.03,0.05,-0.00,-0.04,0.02,0.01
0.068,-0.03,0.05,-0.00,-0.04,0.03,0.01
0.069,-0.03,0.04,-0.02,-0.04,0.03,0.01
0.07,-0.03,0.04,-0.02,-0.03,0.03,0.02
0.073,-0.03,0.04,-0.02,-0.03,0.03,0.02
0.073,-0.02,0.04,-0.04,-0.03,0.03,0.02
0.074,-0.02,0.04,-0.04,-0.02,0.03,0.02
0.077,-0.02,0.04,-0.04,-0.02,0.03,0.02
0.077,0.01,0.05,-0.09,-0.02,0.03,0.02
0.078,0.01,0.05,-0.09,-0.01,0.04,0.01
0.08,0.01,0.05,-0.09,-0.01,0.04,0.01
0.081,0.04,0.04,-0.10,-0.01,0.04,0.01
0.083,0.04,0.04,-0.10,-0.00,0.05,0.01
0.085,0.04,0.04,-0.10,-0.00,0.05,0.01
0.085,0.09,0.03,-0.15,-0.00,0.05,0.01
0.087,0.09,0.03,-0.15,0.01,0.05,0.01
0.089,0.09,0.03,-0.15,0.01,0.05,0.01
0.089,0.08,0.04,-0.14,0.01,0.05,0.01
0.09,0.08,0.04,-0.14,0.01,0.05,0.01
0.092,0.08,0.04,-0.14,0.02,0.05,0.01
0.093,0.07,0.03,-0.14,0.02,0.05,0.01
0.094,0.07,0.03,-0.14,0.03,0.04,0.01
0.096,0.07,0.03,-0.14,0.03,0.04,0.01
0.097,0.05,0.02,-0.11,0.03,0.04,0.01
0.111,0.05,0.02,-0.11,0.04,0.04,0.01
0.111,0.05,0.02,-0.11,0.04,0.04,0.01
0.112,0.06,0.01,-0.11,0.04,0.04,0.01
0.112,0.06,0.01,-0.11,0.04,0.04,0.01
0.112,0.06,0.01,-0.11,0.05,0.03,0.01
0.113,0.05,0.02,-0.09,0.05,0.03,0.01
0.113,0.05,0.02,-0.09,0.05,0.03,0.01
0.113,0.05,0.02,-0.09,0.05,0.03,0.00
0.114,0.09,0.03,-0.12,0.05,0.03,0.00
0.114,0.09,0.03,-0.12,0.05,0.03,0.00
0.114,0.09,0.03,-0.12,0.06,0.03,-0.00
0.114,0.09,0.02,-0.13,0.06,0.03,-0.00
0.115,0.09,0.02,-0.13,0.06,0.02,0.00
0.118,0.09,0.02,-0.13,0.06,0.02,-0.00
0.118,0.12,0.04,-0.17,0.06,0.02,-0.00
0.119,0.12,0.04,-0.17,0.06,0.01,-0.00
0.132,0.12,0.04,-0.17,0.06,0.01,-0.01
0.133,0.16,0.02,-0.16,0.06,0.01,-0.01
0.133,0.16,0.02,-0.16,0.06,0.00,-0.01
0.133,0.16,0.02,-0.16,0.06,-0.00,-0.01
0.134,0.17,0.04,-0.13,0.06,-0.00,-0.01
0.134,0.17,0.04,-0.13,0.06,-0.01,-0.01
0.134,0.17,0.04,-0.13,0.06,-0.01,-0.01
0.134,0.16,0.04,-0.09,0.06,-0.01,-0.01
0.135,0.16,0.04,-0.09,0.06,-0.02,-0.01
0.135,0.19,0.04,-0.05,0.06,-0.02,-0.01
0.135,0.19,0.04,-0.05,0.06,-0.02,-0.00
0.136,0.19,0.04,-0.05,0.06,-0.02,-0.01
0.139,0.19,0.04,-0.05,0.05,-0.02,-0.01
0.139,0.20,0.04,-0.02,0.05,-0.02,-0.01
0.14,0.20,0.04,-0.02,0.05,-0.02,-0.01
0.144,0.20,0.04,-0.02,0.05,-0.02,-0.00
0.144,0.21,0.01,-0.00,0.05,-0.02,-0.00
0.145,0.21,0.01,-0.00,0.04,-0.01,-0.01
0.145,0.21,0.01,-0.00,0.04,-0.01,-0.00
0.145,0.23,0.01,-0.00,0.04,-0.01,-0.00
0.146,0.23,0.01,-0.00,0.04,-0.01,-0.00
0.149,0.23,0.01,-0.00,0.04,-0.00,-0.00
0.15,0.21,0.01,0.00,0.04,-0.00,-0.00
0.15,0.21,0.01,0.00,0.03,-0.00,-0.00
0.152,0.21,0.01,0.00,0.03,0.00,-0.00
0.153,0.19,0.01,0.03,0.03,0.00,-0.00
0.154,0.19,0.01,0.03,0.03,0.01,0.00
0.156,0.19,0.01,0.03,0.03,0.01,-0.00
0.157,0.15,-0.01,0.03,0.03,0.01,-0.00
0.158,0.15,-0.01,0.03,0.02,0.01,0.00
0.16,0.15,-0.01,0.03,0.02,0.02,0.00
0.161,0.12,-0.00,0.04,0.02,0.02,0.00
0.162,0.12,-0.00,0.04,0.02,0.02,0.00
0.165,0.11,0.02,0.03,0.02,0.02,0.00
0.165,0.11,0.02,0.03,0.01,0.03,0.00
0.167,0.11,0.02,0.03,0.01,0.03,0.01
0.168,0.11,0.02,0.03,0.01,0.03,0.01
0.169,0.09,0.01,0.01,0.01,0.03,0.01
0.17,0.09,0.01,0.01,0.01,0.04,0.01
0.172,0.09,0.01,0.01,0.01,0.04,0.01
0.173,0.06,0.02,0.02,0.01,0.04,0.01
0.174,0.06,0.02,0.02,0.00,0.04,0.00
0.176,0.06,0.02,0.02,-0.00,0.04,0.00
0.177,0.03,0.03,0.01,-0.00,0.04,0.00
0.178,0.03,0.03,0.01,-0.01,0.04,0.01
0.18,0.03,0.03,0.01,-0.01,0.04,0.00
0.18,0.02,0.05,-0.01,-0.01,0.04,0.00
0.182,0.02,0.05,-0.01,-0.01,0.04,0.01
0.184,0.02,0.05,-0.01,-0.01,0.04,0.00
0.185,-0.02,0.04,-0.04,-0.01,0.04,0.00
0.186,-0.02,0.04,-0.04,-0.02,0.04,0.01
0.188,-0.02,0.04,-0.04,-0.02,0.03,0.00
0.189,-0.04,0.04,-0.05,-0.02,0.03,0.00
0.19,-0.04,0.04,-0.05,-0.03,0.03,0.00
0.192,-0.04,0.04,-0.05,-0.03,0.03,0.00
0.193,-0.07,0.05,-0.06,-0.03,0.03,0.00
0.194,-0.07,0.05,-0.06,-0.03,0.03,0.00
0.196,-0.08,0.06,-0.08,-0.03,0.03,0.00
0.196,-0.08,0.06,-0.08,-0.04,0.02,0.00
0.198,-0.08,0.06,-0.08,-0.04,0.02,0.00
0.211,-0.08,0.06,-0.08,-0.04,0.02,0.00
0.211,-0.08,0.06,-0.09,-0.04,0.02,0.00
0.212,-0.08,0.06,-0.09,-0.04,0.01,-0.00
0.212,-0.08,0.06,-0.09,-0.04,0.01,-0.00
0.212,-0.08,0.06,-0.11,-0.04,0.01,-0.00
0.213,-0.08,0.06,-0.11,-0.05,0.01,-0.00
0.213,-0.08,0.06,-0.11,-0.05,0.00,-0.00
0.213,-0.11,0.08,-0.10,-0.05,0.00,-0.00
0.213,-0.11,0.08,-0.10,-0.05,-0.00,-0.00
0.214,-0.11,0.08,-0.10,-0.05,-0.01,-0.00
0.214,-0.14,0.10,-0.09,-0.05,-0.01,-0.00
0.214,-0.14,0.10,-0.09,-0.06,-0.01,-0.00
0.216,-0.20,0.09,-0.09,-0.06,-0.01,-0.00
0.216,-0.20,0.09,-0.09,-0.06,-0.02,-0.00
0.218,-0.20,0.09,-0.09,-0.06,-0.02,-0.00
0.22,-0.20,0.09,-0.09,-0.06,-0.03,-0.00
0.221,-0.24,0.11,-0.09,-0.06,-0.03,-0.00
0.222,-0.24,0.11,-0.09,-0.06,-0.04,-0.00
0.224,-0.24,0.11,-0.09,-0.06,-0.04,-0.00
0.225,-0.28,0.10,-0.08,-0.06,-0.04,-0.00
0.226,-0.28,0.10,-0.08,-0.06,-0.04,0.00
0.228,-0.28,0.10,-0.08,-0.06,-0.05,0.00
0.229,-0.31,0.13,-0.09,-0.06,-0.05,0.00
0.23,-0.31,0.13,-0.09,-0.06,-0.06,0.00
0.233,-0.31,0.13,-0.09,-0.07,-0.06,0.00
0.233,-0.33,0.15,-0.09,-0.07,-0.06,0.00
0.234,-0.33,0.15,-0.09,-0.07,-0.07,0.01
0.236,-0.33,0.15,-0.09,-0.07,-0.07,0.01
0.237,-0.37,0.18,-0.08,-0.07,-0.07,0.01
0.238,-0.37,0.18,-0.08,-0.07,-0.07,0.01
0.24,-0.37,0.18,-0.08,-0.08,-0.08,0.01
0.241,-0.39,0.20,-0.11,-0.08,-0.08,0.01
0.242,-0.39,0.20,-0.11,-0.08,-0.08,0.02
0.244,-0.39,0.20,-0.11,-0.09,-0.08,0.02
0.244,-0.39,0.20,-0.11,-0.09,-0.08,0.02
0.246,-0.39,0.20,-0.11,-0.09,-0.08,0.02
0.249,-0.39,0.20,-0.11,-0.09,-0.09,0.02
0.25,-0.39,0.20,-0.12,-0.09,-0.09,0.02
0.25,-0.39,0.20,-0.12,-0.09,-0.08,0.02
0.252,-0.39,0.20,-0.12,-0.10,-0.09,0.02
0.252,-0.38,0.19,-0.12,-0.10,-0.09,0.02
0.254,-0.38,0.19,-0.12,-0.10,-0.09,0.02
0.256,-0.38,0.19,-0.12,-0.10,-0.09,0.03
0.257,-0.36,0.18,-0.13,-0.10,-0.09,0.03
0.258,-0.36,0.18,-0.13,-0.11,-0.08,0.03
0.26,-0.36,0.18,-0.13,-0.11,-0.08,0.03
0.261,-0.34,0.16,-0.13,-0.11,-0.08,0.03
0.262,-0.34,0.16,-0.13,-0.12,-0.08,0.03
0.264,-0.34,0.16,-0.13,-0.12,-0.07,0.03
0.264,-0.30,0.13,-0.12,-0.12,-0.07,0.03
0.266,-0.30,0.13,-0.12,-0.12,-0.07,0.03
0.268,-0.30,0.13,-0.12,-0.13,-0.07,0.03
0.268,-0.26,0.12,-0.10,-0.13,-0.07,0.03
0.27,-0.26,0.12,-0.10,-0.13,-0.06,0.03
0.272,-0.26,0.12,-0.10,-0.13,-0.06,0.02
0.273,-0.22,0.10,-0.05,-0.13,-0.06,0.02
0.274,-0.22,0.10,-0.05,-0.13,-0.05,0.02
0.276,-0.22,0.10,-0.05,-0.14,-0.05,0.02
0.277,-0.18,0.08,0.01,-0.14,-0.05,0.02
0.278,-0.18,0.08,0.01,-0.13,-0.04,0.02
0.28,-0.18,0.08,0.01,-0.13,-0.04,0.01
0.28,-0.13,0.05,0.07,-0.13,-0.04,0.01
0.283,-0.13,0.05,0.07,-0.13,-0.03,0.02
0.284,-0.13,0.05,0.07,-0.13,-0.03,0.01
0.284,-0.08,0.01,0.15,-0.13,-0.03,0.01
0.286,-0.08,0.01,0.15,-0.12,-0.02,0.01
0.288,-0.08,0.01,0.15,-0.12,-0.02,0.01
0.289,-0.07,-0.00,0.19,-0.12,-0.02,0.01
0.29,-0.07,-0.00,0.19,-0.12,-0.02,0.00
0.292,-0.07,-0.00,0.19,-0.11,-0.02,-0.00
0.292,-0.03,0.00,0.25,-0.11,-0.02,-0.00
0.294,-0.03,0.00,0.25,-0.11,-0.01,-0.01
0.296,-0.03,0.00,0.25,-0.10,-0.01,-0.01
0.299,-0.03,-0.02,0.28,-0.10,-0.01,-0.01
0.299,-0.03,-0.02,0.28,-0.10,-0.01,-0.01
0.311,-0.03,-0.02,0.28,-0.09,-0.01,-0.01
0.311,0.01,-0.01,0.29,-0.09,-0.01,-0.01
0.312,0.01,-0.01,0.29,-0.08,-0.01,-0.02
0.312,0.01,-0.01,0.29,-0.07,-0.01,-0.02
0.312,0.04,-0.01,0.33,-0.07,-0.01,-0.02
0.312,0.04,-0.01,0.33,-0.07,-0.01,-0.02
0.313,0.04,-0.01,0.33,-0.06,-0.01,-0.02
0.313,0.06,-0.02,0.33,-0.06,-0.01,-0.02
0.313,0.06,-0.02,0.33,-0.06,-0.01,-0.02
0.314,0.06,-0.02,0.33,-0.05,-0.00,-0.03
0.314,0.07,-0.01,0.29,-0.05,-0.00,-0.03
0.314,0.07,-0.01,0.29,-0.05,-0.00,-0.03
0.316,0.07,-0.01,0.29,-0.04,-0.00,-0.03
0.317,0.08,-0.02,0.26,-0.04,-0.00,-0.03
0.318,0.08,-0.02,0.26,-0.04,-0.00,-0.03
0.32,0.08,-0.02,0.26,-0.03,-0.00,-0.04
0.321,0.07,-0.01,0.22,-0.03,-0.00,-0.04
0.322,0.07,-0.01,0.22,-0.03,-0.00,-0.04
0.324,0.07,-0.01,0.22,-0.02,-0.00,-0.04
0.324,0.06,-0.01,0.18,-0.02,-0.00,-0.04
0.326,0.06,-0.01,0.18,-0.02,-0.01,-0.04
0.328,0.06,-0.01,0.18,-0.02,-0.01,-0.04
0.328,0.05,-0.01,0.16,-0.02,-0.01,-0.04
0.33,0.05,-0.01,0.16,-0.01,-0.01,-0.04
0.332,0.05,-0.01,0.16,-0.01,-0.01,-0.04
0.333,0.06,-0.01,0.11,-0.01,-0.01,-0.04
0.333,0.06,-0.01,0.11,-0.01,-0.01,-0.04
0.336,0.06,-0.01,0.11,-0.01,-0.01,-0.04
0.336,0.05,-0.01,0.05,-0.01,-0.01,-0.04
0.337,0.05,-0.01,0.05,-0.01,-0.02,-0.04
0.34,0.05,-0.01,0.05,-0.01,-0.02,-0.04
0.34,0.05,0.01,-0.00,-0.01,-0.02,-0.04
0.342,0.05,0.01,-0.00,-0.01,-0.02,-0.04
0.344,0.05,0.01,-0.00,-0.01,-0.02,-0.04
0.344,0.02,0.01,-0.03,-0.01,-0.02,-0.04
0.345,0.02,0.01,-0.03,-0.02,-0.03,-0.04
0.348,0.02,0.01,-0.03,-0.02,-0.03,-0.03
0.348,0.00,0.04,-0.06,-0.02,-0.03,-0.03
0.349,0.00,0.04,-0.06,-0.02,-0.04,-0.03
0.352,0.00,0.04,-0.06,-0.02,-0.04,-0.04
0.352,-0.01,0.03,-0.10,-0.02,-0.04,-0.04
0.354,-0.01,0.03,-0.10,-0.03,-0.05,-0.03
0.356,-0.01,0.03,-0.10,-0.04,-0.05,-0.03
0.356,-0.01,0.04,-0.16,-0.04,-0.05,-0.03
0.358,-0.01,0.04,-0.16,-0.04,-0.06,-0.03
0.36,-0.01,0.04,-0.16,-0.04,-0.07,-0.02
0.36,-0.02,0.03,-0.20,-0.04,-0.07,-0.02
0.361,-0.02,0.03,-0.20,-0.05,-0.06,-0.02
0.364,-0.03,0.03,-0.22,-0.05,-0.06,-0.02
0.364,-0.03,0.03,-0.22,-0.06,-0.07,-0.02
0.365,-0.03,0.03,-0.22,-0.06,-0.07,-0.01
0.368,-0.03,0.03,-0.22,-0.07,-0.07,-0.01
0.368,-0.02,0.05,-0.21,-0.07,-0.07,-0.01
0.369,-0.02,0.05,-0.21,-0.07,-0.07,-0.01
0.372,-0.02,0.05,-0.21,-0.08,-0.06,-0.01
0.372,0.01,0.04,-0.20,-0.08,-0.06,-0.01
0.373,0.01,0.04,-0.20,-0.09,-0.06,-0.01
0.376,0.01,0.04,-0.20,-0.09,-0.06,-0.00
0.376,0.06,0.05,-0.20,-0.09,-0.06,-0.00
0.377,0.06,0.05,-0.20,-0.10,-0.06,-0.00
0.38,0.06,0.05,-0.20,-0.10,-0.06,-0.00
0.38,0.08,0.04,-0.21,-0.10,-0.06,-0.00
0.382,0.08,0.04,-0.21,-0.11,-0.06,-0.00
0.384,0.08,0.04,-0.21,-0.11,-0.05,-0.00
0.384,0.08,0.05,-0.19,-0.11,-0.05,-0.00
0.385,0.08,0.05,-0.19,-0.11,-0.05,-0.00
0.388,0.08,0.05,-0.19,-0.12,-0.05,-0.00
0.388,0.08,0.05,-0.14,-0.12,-0.05,-0.00
0.389,0.08,0.05,-0.14,-0.12,-0.05,-0.00
0.392,0.08,0.05,-0.14,-0.12,-0.04,0.00
0.392,0.07,0.05,-0.11,-0.12,-0.04,0.00
0.393,0.07,0.05,-0.11,-0.13,-0.04,0.00
0.396,0.07,0.05,-0.11,-0.13,-0.04,-0.00
0.396,0.08,0.02,-0.08,-0.13,-0.04,-0.00
0.397,0.08,0.02,-0.08,-0.13,-0.04,0.00
0.406,0.08,0.02,-0.08,-0.13,-0.04,-0.00
0.407,0.07,0.02,-0.06,-0.13,-0.04,-0.00
0.407,0.07,0.02,-0.06,-0.13,-0.04,-0.00
0.407,0.07,0.02,-0.06,-0.13,-0.04,-0.00
0.408,0.08,0.05,-0.01,-0.13,-0.04,-0.00
0.408,0.08,0.05,-0.01,-0.13,-0.03,-0.00
0.408,0.08,0.05,-0.01,-0.13,-0.03,-0.01
0.409,0.08,0.04,0.02,-0.13,-0.03,-0.01
0.409,0.08,0.04,0.02,-0.12,-0.03,-0.01
0.412,0.08,0.04,0.02,-0.12,-0.02,-0.01
0.412,0.09,0.05,0.04,-0.12,-0.02,-0.01
0.413,0.09,0.05,0.04,-0.12,-0.02,-0.01
0.417,0.09,0.05,0.04,-0.12,-0.02,-0.01
0.418,0.09,0.06,0.07,-0.12,-0.02,-0.01
0.418,0.09,0.06,0.07,-0.11,-0.02,-0.01
0.42,0.09,0.06,0.07,-0.11,-0.01,-0.01
0.42,0.08,0.07,0.08,-0.11,-0.01,-0.01
0.421,0.08,0.07,0.08,-0.11,-0.01,-0.01
0.424,0.08,0.07,0.08,-0.11,-0.01,-0.01
0.424,0.07,0.08,0.08,-0.11,-0.01,-0.01
0.425,0.07,0.08,0.08,-0.10,-0.01,-0.01
0.428,0.07,0.08,0.08,-0.10,-0.01,-0.01
0.428,0.06,0.09,0.09,-0.10,-0.01,-0.01
0.431,0.06,0.09,0.09,-0.10,-0.00,-0.01
0.433,0.06,0.09,0.09,-0.09,-0.00,-0.02
0.433,0.06,0.10,0.08,-0.09,-0.00,-0.02
0.434,0.06,0.10,0.08,-0.09,-0.00,-0.02
0.436,0.06,0.10,0.08,-0.09,0.00,-0.02
0.436,0.05,0.10,0.09,-0.09,0.00,-0.02
0.437,0.05,0.10,0.09,-0.09,0.01,-0.02
0.44,0.05,0.10,0.09,-0.08,0.00,-0.02
0.44,0.04,0.10,0.07,-0.08,0.00,-0.02
0.441,0.04,0.10,0.07,-0.08,0.00,-0.02
0.444,0.04,0.10,0.07,-0.08,0.00,-0.02
0.444,0.03,0.11,0.09,-0.08,0.00,-0.02
0.445,0.03,0.11,0.09,-0.08,0.01,-0.02
0.447,0.03,0.11,0.09,-0.08,0.01,-0.02
0.448,0.03,0.11,0.08,-0.08,0.01,-0.02
0.449,0.03,0.11,0.08,-0.07,0.00,-0.02
0.451,0.03,0.11,0.08,-0.07,0.01,-0.02
0.452,0.02,0.10,0.08,-0.07,0.01,-0.02
0.453,0.02,0.10,0.08,-0.07,0.01,-0.01
0.456,0.02,0.10,0.08,-0.07,0.00,-0.01
0.456,0.02,0.10,0.07,-0.07,0.00,-0.01
0.457,0.02,0.10,0.07,-0.07,0.00,-0.02
0.459,0.02,0.10,0.07,-0.07,0.00,-0.01
0.46,0.01,0.09,0.08,-0.07,0.00,-0.01
0.461,0.01,0.09,0.08,-0.07,0.00,-0.02
0.463,0.01,0.09,0.08,-0.07,-0.00,-0.01
0.464,0.00,0.09,0.06,-0.07,-0.00,-0.01
0.466,0.00,0.09,0.06,-0.07,-0.00,-0.01
0.467,0.00,0.09,0.06,-0.07,-0.00,-0.01
0.468,0.01,0.09,0.04,-0.07,-0.00,-0.01
0.469,0.01,0.09,0.04,-0.07,-0.00,-0.01
0.472,0.01,0.09,0.04,-0.07,-0.01,-0.01
0.472,0.03,0.09,0.02,-0.07,-0.01,-0.01
0.473,0.03,0.09,0.02,-0.07,-0.01,-0.01
0.475,0.03,0.09,0.02,-0.07,-0.01,-0.01
0.476,0.02,0.09,0.01,-0.07,-0.01,-0.01
0.477,0.02,0.09,0.01,-0.07,-0.01,-0.01
0.479,0.02,0.09,0.01,-0.07,-0.02,-0.01
0.48,0.02,0.10,0.02,-0.07,-0.02,-0.01
0.481,0.02,0.10,0.02,-0.07,-0.02,-0.01
0.483,0.02,0.10,0.02,-0.07,-0.02,-0.01
0.484,0.02,0.10,0.03,-0.07,-0.02,-0.01
0.485,0.02,0.10,0.03,-0.07,-0.02,-0.01
0.488,0.02,0.10,0.03,-0.07,-0.02,-0.01
0.488,0.03,0.08,0.05,-0.07,-0.02,-0.01
0.489,0.03,0.08,0.05,-0.07,-0.02,-0.01
0.491,0.03,0.08,0.05,-0.07,-0.02,-0.01
0.492,0.02,0.09,0.06,-0.07,-0.02,-0.01
0.493,0.02,0.09,0.06,-0.07,-0.02,-0.01
0.495,0.02,0.09,0.06,-0.07,-0.03,-0.01
0.496,0.01,0.08,0.08,-0.07,-0.03,-0.01
0.497,0.01,0.08,0.08,-0.07,-0.03,-0.01
0.506,0.01,0.08,0.08,-0.07,-0.03,-0.01
0.506,0.01,0.07,0.09,-0.07,-0.03,-0.01
0.507,0.01,0.07,0.09,-0.07,-0.03,-0.01
0.507,0.01,0.07,0.09,-0.07,-0.03,-0.01
0.507,0.02,0.07,0.09,-0.07,-0.03,-0.01
0.508,0.02,0.07,0.09,-0.07,-0.03,-0.01
0.508,0.02,0.07,0.09,-0.07,-0.03,-0.01
0.508,0.02,0.05,0.09,-0.07,-0.03,-0.01
0.509,0.02,0.05,0.09,-0.07,-0.03,-0.01
0.511,0.02,0.05,0.09,-0.07,-0.03,-0.01
0.512,0.03,0.04,0.08,-0.07,-0.03,-0.01
0.513,0.03,0.04,0.08,-0.07,-0.03,-0.01
0.516,0.03,0.04,0.08,-0.07,-0.03,-0.01
0.516,0.02,0.04,0.08,-0.07,-0.03,-0.01
0.517,0.02,0.04,0.08,-0.06,-0.03,-0.01
0.519,0.02,0.04,0.08,-0.06,-0.03,-0.01
0.52,0.02,0.03,0.09,-0.06,-0.03,-0.01
0.521,0.02,0.03,0.09,-0.06,-0.03,-0.01
0.523,0.02,0.03,0.09,-0.06,-0.02,-0.01
0.524,0.04,0.03,0.08,-0.06,-0.02,-0.01
0.525,0.04,0.03,0.08,-0.06,-0.02,-0.01
0.527,0.04,0.03,0.08,-0.06,-0.02,-0.01
0.528,0.02,0.03,0.08,-0.06,-0.02,-0.01
0.529,0.02,0.03,0.08,-0.06,-0.02,-0.01
0.531,0.02,0.03,0.08,-0.06,-0.01,-0.01
0.531,0.03,0.02,0.10,-0.06,-0.01,-0.01
0.533,0.03,0.02,0.10,-0.06,-0.01,-0.01
0.535,0.03,0.02,0.09,-0.06,-0.01,-0.01
0.536,0.03,0.02,0.09,-0.06,-0.01,-0.01
0.537,0.03,0.02,0.09,-0.06,-0.00,-0.01
0.539,0.03,0.02,0.09,-0.05,-0.00,-0.01
0.54,0.02,0.02,0.08,-0.05,-0.00,-0.01
0.541,0.02,0.02,0.08,-0.05,-0.00,-0.01
0.543,0.02,0.02,0.08,-0.05,0.00,-0.01
0.544,0.03,0.01,0.09,-0.05,0.00,-0.01
0.545,0.03,0.01,0.09,-0.04,0.00,-0.01
0.547,0.03,0.01,0.09,-0.04,0.00,-0.01
0.547,0.05,0.02,0.09,-0.04,0.00,-0.01
0.549,0.05,0.02,0.09,-0.04,0.01,-0.01
0.551,0.05,0.02,0.09,-0.04,0.01,-0.01
0.551,0.04,0.01,0.07,-0.04,0.01,-0.01
0.553,0.04,0.01,0.07,-0.04,0.01,-0.02
0.556,0.04,0.01,0.07,-0.03,0.01,-0.02
0.556,0.05,0.01,0.08,-0.03,0.01,-0.02
0.557,0.05,0.01,0.08,-0.03,0.01,-0.02
0.559,0.05,0.01,0.08,-0.03,0.01,-0.02
0.56,0.06,0.02,0.06,-0.03,0.01,-0.02
0.561,0.06,0.02,0.06,-0.02,0.02,-0.02
0.564,0.06,0.02,0.06,-0.02,0.01,-0.02
0.564,0.06,0.02,0.05,-0.02,0.01,-0.02
0.566,0.06,0.02,0.05,-0.02,0.02,-0.02
0.567,0.06,0.02,0.05,-0.02,0.02,-0.02
0.567,0.07,0.02,0.02,-0.02,0.02,-0.02
0.569,0.07,0.02,0.02,-0.02,0.02,-0.02
0.571,0.07,0.02,0.02,-0.02,0.02,-0.02
0.572,0.08,0.03,-0.01,-0.02,0.02,-0.02
0.573,0.08,0.03,-0.01,-0.02,0.02,-0.02
0.575,0.08,0.03,-0.01,-0.02,0.02,-0.02
0.575,0.07,0.02,-0.05,-0.02,0.02,-0.02
0.577,0.07,0.02,-0.05,-0.02,0.02,-0.02
0.579,0.07,0.02,-0.05,-0.02,0.02,-0.03
0.579,0.05,0.01,-0.07,-0.02,0.02,-0.03
0.581,0.05,0.01,-0.07,-0.02,0.02,-0.02
0.583,0.05,0.01,-0.07,-0.02,0.02,-0.03
0.584,0.05,0.01,-0.09,-0.02,0.02,-0.03
0.585,0.05,0.01,-0.09,-0.02,0.02,-0.02
0.587,0.05,0.01,-0.09,-0.02,0.01,-0.02
0.588,0.02,0.02,-0.10,-0.02,0.01,-0.02
0.589,0.02,0.02,-0.10,-0.02,0.02,-0.02
0.591,0.02,0.02,-0.10,-0.02,0.01,-0.03
0.591,0.03,0.01,-0.10,-0.02,0.01,-0.03
0.593,0.03,0.01,-0.10,-0.03,0.01,-0.03
0.595,0.03,0.01,-0.10,-0.03,0.01,-0.03
0.595,0.02,0.00,-0.12,-0.03,0.01,-0.03
0.597,0.02,0.00,-0.12,-0.03,0.00,-0.03
0.606,0.02,0.00,-0.12,-0.03,-0.00,-0.03
0.607,0.00,0.01,-0.12,-0.03,-0.00,-0.03
0.607,0.00,0.01,-0.12,-0.04,-0.00,-0.03
0.607,0.00,0.01,-0.12,-0.04,-0.00,-0.03
0.608,0.01,0.01,-0.11,-0.04,-0.00,-0.03
0.608,0.01,0.01,-0.11,-0.04,-0.00,-0.03
0.608,0.01,0.01,-0.11,-0.04,-0.01,-0.03
0.609,-0.01,0.01,-0.11,-0.04,-0.01,-0.03
0.609,-0.01,0.01,-0.11,-0.04,-0.01,-0.03
0.611,-0.01,0.01,-0.11,-0.04,-0.01,-0.04
0.611,0.01,0.02,-0.10,-0.04,-0.01,-0.04
0.613,0.01,0.02,-0.10,-0.05,-0.01,-0.03
0.616,0.01,0.02,-0.10,-0.05,-0.01,-0.03
0.617,-0.01,0.01,-0.09,-0.05,-0.01,-0.03
0.617,-0.01,0.01,-0.09,-0.05,-0.01,-0.03
0.619,-0.01,0.01,-0.09,-0.05,-0.01,-0.03
0.619,-0.01,0.01,-0.07,-0.05,-0.01,-0.03
0.621,-0.01,0.01,-0.07,-0.05,-0.02,-0.03
0.623,-0.01,0.01,-0.07,-0.05,-0.02,-0.03
0.623,-0.03,0.02,-0.04,-0.05,-0.02,-0.03
0.624,-0.03,0.02,-0.04,-0.06,-0.02,-0.03
0.627,-0.03,0.02,-0.04,-0.06,-0.02,-0.03
0.627,-0.07,0.00,-0.04,-0.06,-0.02,-0.03
0.628,-0.07,0.00,-0.04,-0.06,-0.02,-0.03
0.631,-0.07,0.00,-0.04,-0.06,-0.02,-0.02
0.631,-0.09,-0.01,-0.03,-0.06,-0.02,-0.02
0.632,-0.09,-0.01,-0.03,-0.06,-0.03,-0.02
0.635,-0.09,-0.01,-0.03,-0.06,-0.03,-0.02
0.635,-0.08,0.01,-0.03,-0.06,-0.03,-0.02
0.637,-0.08,0.01,-0.03,-0.06,-0.03,-0.02
0.639,-0.08,0.01,-0.03,-0.06,-0.03,-0.02
0.639,-0.08,0.02,-0.02,-0.06,-0.03,-0.02
0.64,-0.08,0.02,-0.02,-0.06,-0.03,-0.02
0.643,-0.08,0.02,-0.02,-0.06,-0.02,-0.02
0.643,-0.07,0.01,-0.04,-0.06,-0.02,-0.02
0.644,-0.07,0.01,-0.04,-0.06,-0.02,-0.02
0.647,-0.07,0.01,-0.04,-0.06,-0.02,-0.02
0.647,-0.05,0.03,-0.05,-0.06,-0.02,-0.02
0.649,-0.05,0.03,-0.05,-0.07,-0.02,-0.02
0.651,-0.05,0.03,-0.05,-0.07,-0.02,-0.02
0.651,-0.03,0.03,-0.04,-0.07,-0.02,-0.02
0.653,-0.03,0.03,-0.04,-0.06,-0.02,-0.02
0.655,-0.03,0.03,-0.04,-0.07,-0.02,-0.02
0.656,-0.03,0.05,-0.04,-0.07,-0.02,-0.02
0.657,-0.03,0.05,-0.04,-0.06,-0.01,-0.02
0.659,-0.03,0.05,-0.04,-0.06,-0.01,-0.02
0.659,-0.03,0.03,-0.02,-0.06,-0.01,-0.02
0.66,-0.03,0.03,-0.02,-0.06,-0.01,-0.02
0.663,-0.03,0.03,-0.02,-0.06,-0.01,-0.02
0.663,-0.01,0.03,-0.02,-0.06,-0.01,-0.02
0.664,-0.01,0.03,-0.02,-0.06,-0.01,-0.03
0.667,-0.01,0.03,-0.02,-0.06,-0.01,-0.03
0.667,-0.04,0.03,0.01,-0.06,-0.01,-0.03
0.668,-0.04,0.03,0.01,-0.06,-0.01,-0.03
0.671,-0.04,0.03,0.01,-0.05,-0.01,-0.03
0.672,-0.05,0.02,0.02,-0.05,-0.01,-0.03
0.672,-0.05,0.02,0.02,-0.05,-0.01,-0.03
0.675,-0.05,0.02,0.02,-0.05,-0.00,-0.03
0.675,-0.06,0.04,0.01,-0.05,-0.00,-0.03
0.676,-0.06,0.04,0.01,-0.05,-0.01,-0.03
0.679,-0.06,0.04,0.01,-0.05,-0.01,-0.03
0.679,-0.08,0.04,0.01,-0.05,-0.01,-0.03
0.68,-0.08,0.04,0.01,-0.04,-0.01,-0.03
0.689,-0.08,0.04,0.01,-0.04,-0.01,-0.03
0.69,-0.07,0.04,0.00,-0.04,-0.01,-0.03
0.69,-0.07,0.04,0.00,-0.04,-0.01,-0.03
0.69,-0.07,0.04,0.00,-0.04,-0.01,-0.03
0.691,-0.07,0.05,-0.02,-0.04,-0.01,-0.03
0.691,-0.07,0.05,-0.02,-0.04,-0.01,-0.03
0.691,-0.07,0.05,-0.02,-0.04,-0.01,-0.03
0.692,-0.07,0.08,-0.03,-0.04,-0.01,-0.03
0.692,-0.07,0.08,-0.03,-0.04,-0.02,-0.03
0.695,-0.07,0.08,-0.03,-0.04,-0.02,-0.03
0.697,-0.08,0.07,-0.05,-0.04,-0.02,-0.03
0.698,-0.08,0.07,-0.05,-0.04,-0.02,-0.03
0.699,-0.08,0.07,-0.05,-0.04,-0.02,-0.03
0.7,-0.07,0.07,-0.07,-0.04,-0.02,-0.03
0.7,-0.07,0.07,-0.07,-0.04,-0.02,-0.03
0.703,-0.07,0.07,-0.07,-0.04,-0.02,-0.03
0.703,-0.07,0.07,-0.08,-0.04,-0.02,-0.03
0.704,-0.07,0.07,-0.08,-0.04,-0.02,-0.03
0.707,-0.07,0.07,-0.08,-0.04,-0.02,-0.03
0.707,-0.06,0.08,-0.09,-0.04,-0.02,-0.03
0.708,-0.06,0.08,-0.09,-0.04,-0.02,-0.03
0.711,-0.06,0.08,-0.09,-0.05,-0.02,-0.03
0.711,-0.07,0.08,-0.11,-0.05,-0.02,-0.03
0.712,-0.07,0.08,-0.11,-0.05,-0.02,-0.03
0.714,-0.07,0.08,-0.11,-0.05,-0.02,-0.03
0.715,-0.06,0.07,-0.11,-0.05,-0.02,-0.03
0.716,-0.06,0.07,-0.11,-0.05,-0.03,-0.03
0.719,-0.06,0.07,-0.11,-0.05,-0.02,-0.03
0.719,-0.07,0.07,-0.10,-0.05,-0.02,-0.03
0.72,-0.07,0.07,-0.10,-0.05,-0.02,-0.03
0.723,-0.07,0.07,-0.10,-0.05,-0.02,-0.03
0.723,-0.08,0.07,-0.08,-0.05,-0.02,-0.03
0.724,-0.08,0.07,-0.08,-0.06,-0.02,-0.03
0.727,-0.08,0.07,-0.08,-0.06,-0.02,-0.03
0.727,-0.08,0.08,-0.05,-0.06,-0.02,-0.03
0.728,-0.08,0.08,-0.05,-0.06,-0.02,-0.03
0.731,-0.08,0.08,-0.05,-0.06,-0.02,-0.03
0.731,-0.07,0.07,-0.03,-0.06,-0.02,-0.03
0.732,-0.07,0.07,-0.03,-0.06,-0.02,-0.03
0.734,-0.07,0.07,-0.03,-0.06,-0.02,-0.03
0.735,-0.08,0.08,0.02,-0.06,-0.02,-0.03
0.736,-0.08,0.08,0.02,-0.06,-0.02,-0.03
0.739,-0.08,0.08,0.02,-0.06,-0.02,-0.03
0.739,-0.06,0.08,0.04,-0.06,-0.02,-0.03
0.74,-0.06,0.08,0.04,-0.06,-0.02,-0.03
0.742,-0.06,0.08,0.04,-0.06,-0.02,-0.03
0.743,-0.06,0.08,0.06,-0.06,-0.02,-0.03
0.744,-0.06,0.08,0.06,-0.06,-0.01,-0.03
0.746,-0.06,0.08,0.06,-0.05,-0.01,-0.03
0.747,-0.05,0.08,0.09,-0.05,-0.01,-0.03
0.749,-0.05,0.08,0.09,-0.05,-0.01,-0.03
0.751,-0.05,0.08,0.09,-0.05,-0.01,-0.03
0.751,-0.05,0.07,0.12,-0.05,-0.01,-0.03
0.752,-0.05,0.07,0.12,-0.05,-0.01,-0.03
0.755,-0.05,0.07,0.12,-0.05,-0.01,-0.03
0.755,-0.06,0.08,0.12,-0.05,-0.01,-0.03
0.756,-0.06,0.08,0.12,-0.04,-0.01,-0.03
0.758,-0.06,0.08,0.12,-0.04,-0.00,-0.03
0.759,-0.05,0.08,0.13,-0.04,-0.00,-0.03
0.76,-0.05,0.08,0.13,-0.04,-0.00,-0.03
0.762,-0.05,0.08,0.13,-0.04,-0.00,-0.03
0.763,-0.04,0.07,0.13,-0.04,-0.00,-0.03
0.764,-0.04,0.07,0.13,-0.03,-0.00,-0.03
0.766,-0.04,0.07,0.13,-0.03,0.00,-0.04
0.767,-0.06,0.09,0.12,-0.03,0.00,-0.04
0.768,-0.06,0.09,0.12,-0.03,-0.00,-0.04
0.771,-0.06,0.09,0.12,-0.03,0.00,-0.04
0.771,-0.05,0.10,0.11,-0.03,0.00,-0.04
0.772,-0.05,0.10,0.11,-0.02,-0.00,-0.03
0.775,-0.05,0.10,0.11,-0.02,-0.00,-0.03
0.775,-0.07,0.10,0.10,-0.02,-0.00,-0.03
0.776,-0.07,0.10,0.10,-0.02,-0.00,-0.03
0.778,-0.07,0.10,0.10,-0.01,-0.00,-0.03
0.778,-0.08,0.11,0.09,-0.01,-0.00,-0.03
0.78,-0.08,0.11,0.09,-0.01,-0.00,-0.03
0.789,-0.08,0.11,0.09,-0.01,-0.00,-0.03
0.79,-0.09,0.12,0.09,-0.01,-0.00,-0.03
0.79,-0.09,0.12,0.09,-0.01,-0.00,-0.03
0.79,-0.09,0.12,0.09,-0.01,-0.00,-0.03
0.791,-0.09,0.12,0.08,-0.01,-0.00,-0.03
0.791,-0.09,0.12,0.08,-0.01,-0.00,-0.03
0.791,-0.09,0.12,0.08,-0.01,-0.00,-0.03
0.792,-0.08,0.12,0.05,-0.01,-0.00,-0.03
0.792,-0.08,0.12,0.05,-0.01,-0.01,-0.03
0.794,-0.08,0.12,0.05,-0.01,-0.01,-0.03
0.795,-0.08,0.11,0.03,-0.01,-0.01,-0.03
0.796,-0.08,0.11,0.03,-0.01,-0.01,-0.02
0.8,-0.08,0.11,0.03,-0.01,-0.01,-0.02
0.801,-0.08,0.12,0.02,-0.01,-0.01,-0.02
0.801,-0.08,0.12,0.02,-0.01,-0.01,-0.02
0.802,-0.08,0.12,0.02,-0.01,-0.01,-0.02
0.803,-0.07,0.12,-0.01,-0.01,-0.01,-0.02
0.804,-0.07,0.12,-0.01,-0.01,-0.01,-0.02
0.806,-0.07,0.12,-0.01,-0.01,-0.02,-0.02
0.807,-0.06,0.12,-0.04,-0.01,-0.02,-0.02
0.808,-0.06,0.12,-0.04,-0.01,-0.01,-0.02
0.81,-0.06,0.12,-0.04,-0.01,-0.02,-0.02
0.811,-0.06,0.11,-0.06,-0.01,-0.02,-0.02
0.812,-0.06,0.11,-0.06,-0.01,-0.02,-0.02
0.814,-0.06,0.11,-0.06,-0.02,-0.02,-0.02
0.814,-0.06,0.11,-0.10,-0.02,-0.02,-0.02
0.816,-0.06,0.11,-0.10,-0.02,-0.02,-0.02
0.818,-0.06,0.11,-0.10,-0.02,-0.02,-0.02
0.818,-0.05,0.11,-0.10,-0.02,-0.02,-0.02
0.82,-0.05,0.11,-0.10,-0.02,-0.02,-0.02
0.823,-0.05,0.11,-0.10,-0.02,-0.02,-0.01
0.823,-0.04,0.11,-0.11,-0.02,-0.02,-0.01
0.824,-0.04,0.11,-0.11,-0.02,-0.02,-0.02
0.826,-0.04,0.11,-0.11,-0.03,-0.02,-0.02
0.827,-0.03,0.10,-0.12,-0.03,-0.02,-0.02
0.83,-0.03,0.10,-0.12,-0.03,-0.02,-0.01
0.83,-0.03,0.10,-0.12,-0.03,-0.02,-0.01
0.831,-0.03,0.10,-0.12,-0.03,-0.02,-0.01
0.833,-0.03,0.10,-0.12,-0.03,-0.01,-0.01
0.834,-0.03,0.10,-0.12,-0.03,-0.01,-0.01
0.834,-0.03,0.10,-0.11,-0.03,-0.01,-0.01
0.836,-0.03,0.10,-0.11,-0.03,-0.01,-0.01
0.838,-0.03,0.10,-0.11,-0.04,-0.01,-0.01
0.839,-0.03,0.10,-0.10,-0.04,-0.01,-0.01
0.84,-0.03,0.10,-0.10,-0.03,-0.01,-0.01
0.842,-0.03,0.10,-0.10,-0.03,-0.01,-0.01
0.843,-0.05,0.11,-0.08,-0.03,-0.01,-0.01
0.844,-0.05,0.11,-0.08,-0.04,-0.00,-0.00
0.846,-0.05,0.11,-0.08,-0.04,-0.00,-0.00
0.846,-0.06,0.09,-0.07,-0.04,-0.00,-0.00
0.848,-0.06,0.09,-0.07,-0.03,-0.00,-0.00
0.85,-0.06,0.09,-0.07,-0.03,-0.00,-0.00
0.851,-0.06,0.10,-0.05,-0.03,-0.00,-0.00
0.852,-0.06,0.10,-0.05,-0.03,0.00,-0.00
0.855,-0.06,0.10,-0.05,-0.03,0.00,-0.00
0.855,-0.05,0.09,-0.03,-0.03,0.00,-0.00
0.856,-0.05,0.09,-0.03,-0.03,-0.00,-0.00
0.858,-0.05,0.09,-0.03,-0.03,0.00,0.00
0.858,-0.04,0.09,-0.02,-0.03,0.00,0.00
0.86,-0.04,0.09,-0.02,-0.03,0.00,-0.00
0.862,-0.04,0.09,-0.02,-0.03,0.00,-0.00
0.862,-0.04,0.06,0.02,-0.03,0.00,-0.00
0.864,-0.04,0.06,0.02,-0.02,0.00,-0.00
0.866,-0.04,0.06,0.02,-0.02,0.00,-0.00
0.866,-0.04,0.08,0.03,-0.02,0.00,-0.00
0.868,-0.04,0.08,0.03,-0.02,0.00,-0.00
0.87,-0.04,0.08,0.03,-0.02,0.01,-0.00
0.871,-0.05,0.06,0.06,-0.02,0.01,-0.00
0.872,-0.05,0.06,0.06,-0.02,0.01,-0.00
0.874,-0.05,0.06,0.06,-0.01,0.01,-0.00
0.875,-0.05,0.07,0.06,-0.01,0.01,-0.00
0.876,-0.05,0.07,0.06,-0.01,0.01,-0.01
0.878,-0.05,0.07,0.06,-0.01,0.01,-0.00
0.878,-0.06,0.07,0.05,-0.01,0.01,-0.00
0.88,-0.06,0.07,0.05,-0.01,0.01,-0.00
0.889,-0.05,0.05,0.04,-0.01,0.01,-0.00
0.89,-0.05,0.05,0.04,-0.00,0.01,-0.00
0.89,-0.05,0.05,0.04,-0.01,0.01,-0.01
0.89,-0.05,0.05,0.04,-0.00,0.01,-0.00
0.891,-0.06,0.05,0.05,-0.00,0.01,-0.00
0.891,-0.06,0.05,0.05,0.00,0.00,-0.01
0.891,-0.06,0.05,0.05,0.00,0.00,-0.00
0.892,-0.07,0.06,0.04,0.00,0.00,-0.00
0.892,-0.07,0.06,0.04,0.00,0.00,-0.01
0.894,-0.07,0.06,0.04,0.01,0.00,-0.01
0.895,-0.08,0.05,0.02,0.01,0.00,-0.01
0.896,-0.08,0.05,0.02,0.01,-0.00,-0.01
0.898,-0.08,0.05,0.02,0.01,-0.00,-0.01
0.898,-0.07,0.05,0.01,0.01,-0.00,-0.01
0.9,-0.07,0.05,0.01,0.01,-0.01,-0.01
0.902,-0.07,0.05,0.01,0.01,-0.01,-0.01
0.902,-0.07,0.05,0.01,0.01,-0.01,-0.01
0.904,-0.07,0.05,0.01,0.01,-0.01,-0.01
0.906,-0.07,0.05,0.01,0.01,-0.01,-0.01
0.907,-0.07,0.04,-0.02,0.01,-0.01,-0.01
0.908,-0.07,0.04,-0.02,0.01,-0.00,-0.01
0.91,-0.07,0.04,-0.02,0.01,-0.00,-0.01
0.911,-0.07,0.04,-0.03,0.01,-0.00,-0.01
0.912,-0.07,0.04,-0.03,0.01,-0.00,-0.00
0.914,-0.07,0.04,-0.03,0.01,-0.00,-0.00
0.914,-0.08,0.04,-0.07,0.01,-0.00,-0.00
0.916,-0.08,0.04,-0.07,0.00,-0.00,-0.00
0.918,-0.08,0.04,-0.07,0.01,-0.00,-0.00
0.918,-0.06,0.03,-0.07,0.01,-0.00,-0.00
0.92,-0.06,0.03,-0.07,0.00,0.00,-0.00
0.922,-0.06,0.03,-0.07,0.00,0.00,-0.01
0.923,-0.05,0.02,-0.09,0.00,0.00,-0.01
0.924,-0.05,0.02,-0.09,0.00,0.00,-0.00
0.926,-0.05,0.02,-0.09,-0.00,0.00,-0.00
0.926,-0.05,0.04,-0.07,-0.00,0.00,-0.00
0.928,-0.05,0.04,-0.07,-0.00,0.00,-0.00
0.93,-0.05,0.04,-0.07,-0.00,0.00,-0.00
0.93,-0.05,0.04,-0.08,-0.00,0.00,-0.00
0.933,-0.05,0.04,-0.08,-0.01,0.00,-0.00
0.934,-0.05,0.04,-0.08,-0.01,0.00,-0.00
0.934,-0.05,0.04,-0.06,-0.01,0.00,-0.00
0.935,-0.05,0.04,-0.06,-0.01,0.00,0.00
0.938,-0.05,0.04,-0.06,-0.01,0.00,0.00
0.939,-0.04,0.04,-0.08,-0.01,0.00,0.00
0.94,-0.04,0.04,-0.08,-0.01,0.00,0.00
0.942,-0.04,0.04,-0.08,-0.01,-0.00,0.01
0.942,-0.03,0.04,-0.06,-0.01,-0.00,0.01
0.943,-0.03,0.04,-0.06,-0.01,-0.00,0.01
0.946,-0.03,0.04,-0.06,-0.02,-0.00,0.00
0.946,-0.04,0.04,-0.05,-0.02,-0.00,0.00
0.947,-0.04,0.04,-0.05,-0.01,-0.00,0.00
0.95,-0.04,0.04,-0.05,-0.01,-0.00,0.01
0.95,-0.03,0.04,-0.04,-0.01,-0.00,0.01
0.951,-0.03,0.04,-0.04,-0.01,-0.01,0.01
0.954,-0.03,0.04,-0.04,-0.01,-0.01,0.01
0.954,-0.02,0.04,-0.05,-0.01,-0.01,0.01
0.956,-0.02,0.04,-0.05,-0.01,-0.01,0.01
0.958,-0.02,0.04,-0.05,-0.01,-0.01,0.01
0.958,-0.03,0.04,-0.03,-0.01,-0.01,0.01
0.959,-0.03,0.04,-0.03,-0.01,-0.01,0.01
0.962,-0.03,0.04,-0.03,-0.01,-0.01,0.01
0.963,-0.02,0.05,-0.05,-0.01,-0.01,0.01
0.963,-0.02,0.05,-0.05,-0.01,-0.01,0.01
0.966,-0.02,0.05,-0.05,-0.01,-0.01,0.01
0.966,-0.02,0.05,-0.04,-0.01,-0.01,0.01
0.967,-0.02,0.05,-0.04,-0.01,-0.01,0.01
0.97,-0.02,0.05,-0.04,-0.01,-0.01,0.02
0.97,-0.02,0.05,-0.05,-0.01,-0.01,0.02
0.971,-0.02,0.05,-0.05,-0.01,-0.01,0.02
0.974,-0.02,0.05,-0.05,-0.01,-0.01,0.02
0.974,-0.02,0.05,-0.05,-0.01,-0.01,0.02
0.975,-0.02,0.05,-0.05,-0.01,-0.01,0.02
0.978,-0.02,0.05,-0.05,-0.01,-0.01,0.02
0.978,-0.00,0.04,-0.05,-0.01,-0.01,0.02
0.979,-0.00,0.04,-0.05,-0.01,-0.01,0.01
0.982,-0.00,0.04,-0.05,-0.01,-0.01,0.01
0.983,0.01,0.04,-0.05,-0.01,-0.01,0.01
0.983,0.01,0.04,-0.05,-0.01,-0.01,0.01
0.986,0.01,0.04,-0.05,-0.01,-0.01,0.01
0.986,0.00,0.03,-0.04,-0.01,-0.01,0.01
0.987,0.00,0.03,-0.04,-0.01,-0.01,0.01
0.99,0.00,0.03,-0.04,-0.01,-0.01,0.01
0.991,0.02,0.04,-0.04,-0.01,-0.01,0.01
0.991,0.02,0.04,-0.04,-0.01,-0.01,0.01
0.994,0.02,0.04,-0.04,-0.01,-0.01,0.01
0.994,0.02,0.03,-0.02,-0.01,-0.01,0.01
0.995,0.02,0.03,-0.02,-0.01,-0.02,0.01
0.998,0.02,0.03,-0.02,-0.01,-0.01,0.01
0.998,0.02,0.03,-0.02,-0.01,-0.01,0.01
1.005,0.02,0.03,-0.02,-0.01,-0.01,0.01
1.006,0.02,0.03,-0.01,-0.01,-0.01,0.01
1.006,0.02,0.03,-0.01,-0.01,-0.01,0.01
1.007,0.02,0.03,-0.01,-0.01,-0.01,0.01
1.007,0.02,0.03,-0.01,-0.01,-0.01,0.00
1.007,0.02,0.02,-0.00,-0.01,-0.01,0.00
1.008,0.02,0.02,-0.00,-0.01,-0.01,0.01
1.01,0.02,0.02,-0.00,-0.01,-0.01,0.00
1.01,0.02,0.01,-0.01,-0.01,-0.01,0.00
1.011,0.02,0.01,-0.01,-0.01,-0.01,0.00
1.014,0.02,0.01,-0.01,-0.01,-0.00,0.00
1.014,0.04,0.02,-0.01,-0.01,-0.00,0.00
1.016,0.04,0.02,-0.01,-0.00,-0.00,0.00
1.017,0.04,0.02,-0.01,-0.01,0.00,0.00
1.018,0.05,0.02,-0.00,-0.01,0.00,0.00
1.019,0.05,0.02,-0.00,-0.01,0.01,-0.00
1.022,0.05,0.02,-0.00,-0.00,0.01,-0.00
1.022,0.03,0.01,0.02,-0.00,0.01,-0.00
1.023,0.03,0.01,0.02,-0.00,0.01,-0.00
1.026,0.03,0.01,0.02,-0.00,0.01,-0.00
1.026,0.03,-0.02,0.03,-0.00,0.01,-0.00
1.027,0.03,-0.02,0.03,-0.00,0.01,-0.00
1.029,0.03,-0.02,0.03,0.00,0.01,-0.01
1.03,0.01,-0.02,0.05,0.00,0.01,-0.01
1.031,0.01,-0.02,0.05,0.01,0.02,-0.00
1.033,0.01,-0.02,0.05,0.01,0.02,-0.00
1.034,0.01,-0.02,0.07,0.01,0.02,-0.00
1.035,0.01,-0.02,0.07,0.01,0.02,-0.00
1.038,0.01,-0.02,0.07,0.01,0.02,-0.00
1.038,0.01,-0.03,0.07,0.01,0.02,-0.00
1.039,0.01,-0.03,0.07,0.01,0.02,-0.00
1.042,0.01,-0.03,0.07,0.01,0.02,-0.01
1.042,0.01,-0.02,0.06,0.01,0.02,-0.01
1.043,0.01,-0.02,0.06,0.02,0.01,-0.00
1.045,0.01,-0.02,0.06,0.01,0.02,-0.01
1.046,0.03,-0.03,0.04,0.01,0.02,-0.01
1.047,0.03,-0.03,0.04,0.02,0.01,-0.01
1.05,0.03,-0.03,0.04,0.02,0.02,-0.01
1.05,0.03,-0.04,0.01,0.02,0.02,-0.01
1.051,0.03,-0.04,0.01,0.02,0.02,-0.01
1.054,0.03,-0.04,0.01,0.02,0.02,-0.01
1.054,0.03,-0.04,-0.02,0.02,0.02,-0.01
1.055,0.03,-0.04,-0.02,0.02,0.02,-0.01
1.057,0.03,-0.04,-0.02,0.02,0.02,-0.01
1.058,0.03,-0.05,-0.04,0.02,0.02,-0.01
1.059,0.03,-0.05,-0.04,0.02,0.02,-0.01
1.061,0.03,-0.05,-0.04,0.02,0.02,-0.01
1.062,0.04,-0.05,-0.09,0.02,0.02,-0.01
1.063,0.04,-0.05,-0.09,0.02,0.02,-0.01
1.066,0.04,-0.05,-0.09,0.02,0.02,-0.00
1.066,0.03,-0.06,-0.11,0.02,0.02,-0.00
1.067,0.03,-0.06,-0.11,0.02,0.02,-0.00
1.07,0.03,-0.06,-0.11,0.01,0.02,-0.00
1.07,0.03,-0.04,-0.16,0.01,0.02,-0.00
1.071,0.03,-0.04,-0.16,0.01,0.02,-0.00
1.073,0.03,-0.04,-0.16,0.01,0.02,-0.00
1.074,0.01,-0.04,-0.19,0.01,0.02,-0.00
1.075,0.01,-0.04,-0.19,0.01,0.02,-0.01
1.077,0.01,-0.04,-0.19,0.01,0.02,-0.00
1.078,0.02,-0.05,-0.22,0.01,0.02,-0.00
1.079,0.02,-0.05,-0.22,0.00,0.02,-0.00
1.081,0.02,-0.05,-0.22,-0.00,0.02,0.00
1.082,0.01,-0.04,-0.24,-0.00,0.02,0.00
1.083,0.01,-0.04,-0.24,-0.00,0.02,0.00
1.085,0.01,-0.04,-0.24,-0.01,0.02,0.00
1.086,0.01,-0.05,-0.25,-0.01,0.02,0.00
1.087,0.01,-0.05,-0.25,-0.01,0.02,0.00
1.09,0.01,-0.05,-0.25,-0.01,0.02,0.00
1.09,0.01,-0.04,-0.24,-0.01,0.02,0.00
1.091,0.01,-0.04,-0.24,-0.01,0.02,0.01
1.093,0.01,-0.04,-0.24,-0.02,0.02,0.01
1.096,0.01,-0.05,-0.23,-0.02,0.02,0.01
1.096,0.01,-0.05,-0.23,-0.02,0.02,0.01
1.097,0.01,-0.05,-0.23,-0.02,0.02,0.01
1.097,0.01,-0.05,-0.21,-0.02,0.02,0.01
1.105,0.01,-0.05,-0.21,-0.03,0.02,0.01
1.106,0.01,-0.05,-0.21,-0.03,0.02,0.01
1.106,0.01,-0.05,-0.18,-0.03,0.02,0.01
1.106,0.01,-0.05,-0.18,-0.03,0.02,0.01
1.107,0.01,-0.05,-0.18,-0.03,0.02,0.01
1.107,0.01,-0.04,-0.15,-0.03,0.02,0.01
1.107,0.01,-0.04,-0.15,-0.03,0.02,0.01
1.109,0.01,-0.04,-0.15,-0.04,0.02,0.01
1.11,0.00,-0.05,-0.12,-0.04,0.02,0.01
1.111,0.00,-0.05,-0.12,-0.04,0.02,0.01
1.113,0.00,-0.05,-0.12,-0.04,0.01,0.01
1.114,0.00,-0.04,-0.07,-0.04,0.01,0.01
1.116,0.00,-0.04,-0.07,-0.04,0.01,0.01
1.117,0.00,-0.04,-0.07,-0.04,0.01,0.02
1.117,0.00,-0.03,-0.04,-0.04,0.01,0.02
1.119,0.00,-0.03,-0.04,-0.04,0.01,0.01
1.122,0.00,-0.03,-0.04,-0.04,0.01,0.01
1.122,-0.01,-0.02,-0.02,-0.04,0.01,0.01
1.123,-0.01,-0.02,-0.02,-0.04,0.01,0.02
1.125,-0.01,-0.02,-0.02,-0.04,0.01,0.02
1.126,-0.01,-0.01,0.00,-0.04,0.01,0.02
1.127,-0.01,-0.01,0.00,-0.04,0.01,0.02
1.129,-0.01,-0.01,0.00,-0.04,0.00,0.02
1.129,-0.01,0.01,0.01,-0.04,0.00,0.02
1.131,-0.01,0.01,0.01,-0.04,0.01,0.02
1.133,-0.01,0.01,0.01,-0.04,0.00,0.02
1.134,0.02,0.01,0.04,-0.04,0.00,0.02
1.135,0.02,0.01,0.04,-0.04,0.00,0.02
1.137,0.02,0.01,0.04,-0.04,0.00,0.02
1.138,0.02,0.01,0.06,-0.04,0.00,0.02
1.139,0.02,0.01,0.06,-0.04,0.00,0.02
1.141,0.02,0.01,0.06,-0.04,0.00,0.02
1.142,0.02,0.01,0.07,-0.04,0.00,0.02
1.143,0.02,0.01,0.07,-0.04,0.00,0.02
1.145,0.02,0.01,0.07,-0.04,0.00,0.02
1.145,0.03,0.02,0.08,-0.04,0.00,0.02
1.147,0.03,0.02,0.08,-0.04,0.00,0.02
1.149,0.03,0.02,0.08,-0.04,0.00,0.02
1.15,0.05,0.01,0.08,-0.04,0.00,0.02
1.151,0.05,0.01,0.08,-0.04,0.00,0.02
1.153,0.05,0.01,0.08,-0.04,0.00,0.02
1.154,0.06,0.02,0.09,-0.04,0.00,0.02
1.155,0.06,0.02,0.09,-0.03,0.00,0.01
1.157,0.06,0.02,0.09,-0.03,0.00,0.01
1.158,0.05,0.02,0.08,-0.03,0.00,0.01
1.159,0.05,0.02,0.08,-0.03,-0.00,0.01
1.161,0.05,0.02,0.08,-0.03,-0.00,0.01
1.161,0.07,0.00,0.08,-0.03,-0.00,0.01
1.163,0.07,0.00,0.08,-0.03,-0.00,0.01
1.166,0.07,0.00,0.08,-0.03,-0.00,0.01
1.166,0.08,0.02,0.07,-0.03,-0.00,0.01
1.167,0.08,0.02,0.07,-0.03,-0.00,0.00
1.169,0.08,0.02,0.07,-0.03,-0.01,0.00
1.17,0.09,0.00,0.09,-0.03,-0.01,0.00
1.171,0.09,0.00,0.09,-0.03,-0.01,0.00
1.173,0.09,0.00,0.09,-0.02,-0.01,0.00
1.174,0.08,0.02,0.10,-0.02,-0.01,0.00
1.175,0.08,0.02,0.10,-0.02,-0.01,0.00
1.177,0.08,0.02,0.10,-0.02,-0.01,0.00
1.177,0.09,0.02,0.09,-0.02,-0.01,0.00
1.179,0.09,0.02,0.09,-0.02,-0.02,0.00
1.181,0.09,0.02,0.09,-0.02,-0.02,-0.00
1.181,0.09,0.02,0.11,-0.02,-0.02,-0.00
1.183,0.09,0.02,0.11,-0.01,-0.02,-0.00
1.185,0.09,0.02,0.11,-0.01,-0.02,-0.00
1.186,0.09,0.03,0.10,-0.01,-0.02,-0.00
1.187,0.09,0.03,0.10,-0.01,-0.02,-0.00
1.189,0.09,0.03,0.10,-0.01,-0.02,0.00
1.19,0.07,0.02,0.10,-0.01,-0.02,0.00
1.191,0.07,0.02,0.10,-0.01,-0.02,0.00
1.193,0.07,0.02,0.10,-0.00,-0.02,0.00
1.193,0.09,0.03,0.08,-0.00,-0.02,0.00
1.195,0.09,0.03,0.08,-0.00,-0.02,0.00
1.197,0.09,0.03,0.08,-0.00,-0.02,0.00
1.197,0.10,0.03,0.07,-0.00,-0.02,0.00
1.206,0.10,0.03,0.07,0.00,-0.02,0.00
1.207,0.10,0.03,0.07,-0.00,-0.01,0.00
1.207,0.10,0.01,0.05,-0.00,-0.01,0.00
1.207,0.10,0.01,0.05,0.00,-0.01,0.00
1.208,0.10,0.01,0.05,0.00,-0.01,0.00
1.208,0.11,0.01,0.05,0.00,-0.01,0.00
1.208,0.11,0.01,0.05,0.00,-0.00,0.00
1.209,0.11,0.01,0.05,0.00,-0.00,0.00
1.21,0.12,0.01,0.02,0.00,-0.00,0.00
1.211,0.12,0.01,0.02,0.00,-0.00,0.00
1.213,0.12,0.01,0.02,0.00,0.00,0.00
1.213,0.11,-0.01,0.02,0.00,0.00,0.00
1.215,0.11,-0.01,0.02,0.00,0.01,0.00
1.217,0.11,-0.01,0.02,0.00,0.00,0.01
1.218,0.11,-0.01,-0.01,0.00,0.00,0.01
1.219,0.11,-0.01,-0.01,0.00,0.01,0.01
1.221,0.11,-0.01,-0.01,0.00,0.01,0.01
1.222,0.07,-0.02,-0.02,0.00,0.01,0.01
1.223,0.07,-0.02,-0.02,-0.00,0.01,0.01
1.225,0.07,-0.02,-0.02,-0.00,0.01,0.01
1.225,0.10,-0.01,-0.04,-0.00,0.01,0.01
1.228,0.10,-0.01,-0.04,-0.00,0.01,0.01
1.229,0.10,-0.01,-0.04,-0.00,0.01,0.01
1.229,0.09,-0.02,-0.05,-0.00,0.01,0.01
1.231,0.09,-0.02,-0.05,-0.01,0.01,0.01
1.233,0.09,-0.02,-0.05,-0.01,0.01,0.01
1.233,0.08,-0.02,-0.05,-0.01,0.01,0.01
1.234,0.08,-0.02,-0.05,-0.01,0.02,0.01
1.237,0.08,-0.02,-0.05,-0.01,0.02,0.01
1.237,0.09,-0.02,-0.06,-0.01,0.02,0.01
1.239,0.09,-0.02,-0.06,-0.01,0.01,0.01
1.241,0.09,-0.02,-0.06,-0.01,0.01,0.01
1.241,0.07,-0.01,-0.06,-0.01,0.01,0.01
1.242,0.07,-0.01,-0.06,-0.01,0.01,0.02
1.245,0.07,-0.01,-0.06,-0.02,0.01,0.02
1.245,0.08,-0.02,-0.06,-0.02,0.01,0.02
1.246,0.08,-0.02,-0.06,-0.01,0.01,0.02
1.249,0.08,-0.02,-0.06,-0.02,0.01,0.02
1.25,0.07,-0.01,-0.06,-0.02,0.01,0.02
1.25,0.07,-0.01,-0.06,-0.02,0.01,0.02
1.253,0.07,-0.01,-0.06,-0.02,0.01,0.02
1.253,0.07,-0.00,-0.09,-0.02,0.01,0.02
1.255,0.07,-0.00,-0.09,-0.02,0.01,0.02
1.257,0.07,-0.00,-0.09,-0.02,0.01,0.02
1.257,0.06,-0.02,-0.07,-0.02,0.01,0.02
1.258,0.06,-0.02,-0.07,-0.03,0.01,0.03
1.261,0.06,-0.02,-0.07,-0.03,0.00,0.03
1.261,0.09,-0.01,-0.10,-0.03,0.00,0.03
1.262,0.09,-0.01,-0.10,-0.03,0.00,0.03
1.265,0.09,-0.01,-0.10,-0.03,0.00,0.03
1.265,0.08,-0.03,-0.09,-0.03,0.00,0.03
1.267,0.08,-0.03,-0.09,-0.04,0.00,0.03
1.269,0.08,-0.03,-0.09,-0.04,0.01,0.03
1.269,0.08,-0.03,-0.10,-0.04,0.01,0.03
1.27,0.08,-0.03,-0.10,-0.04,0.01,0.03
1.273,0.08,-0.03,-0.10,-0.04,0.00,0.03
1.273,0.11,-0.05,-0.10,-0.04,0.00,0.03
1.274,0.11,-0.05,-0.10,-0.04,0.01,0.03
1.277,0.11,-0.05,-0.10,-0.04,0.01,0.03
1.277,0.12,-0.06,-0.08,-0.04,0.01,0.03
1.278,0.12,-0.06,-0.08,-0.05,0.01,0.03
1.281,0.12,-0.06,-0.03,-0.05,0.01,0.03
1.281,0.12,-0.06,-0.03,-0.05,0.01,0.03
1.283,0.12,-0.06,-0.03,-0.05,0.01,0.03
1.285,0.12,-0.06,-0.03,-0.04,0.01,0.03
1.285,0.14,-0.06,0.01,-0.04,0.01,0.03
1.287,0.14,-0.06,0.01,-0.04,0.01,0.02
1.289,0.14,-0.06,0.01,-0.04,0.00,0.02
1.29,0.13,-0.07,0.04,-0.04,0.00,0.02
1.29,0.13,-0.07,0.04,-0.04,0.00,0.02
1.293,0.13,-0.07,0.04,-0.03,0.00,0.01
1.293,0.12,-0.06,0.09,-0.03,0.00,0.01
1.294,0.12,-0.06,0.09,-0.03,0.00,0.01
1.297,0.12,-0.06,0.09,-0.03,0.00,0.01
1.297,0.12,-0.06,0.10,-0.03,0.00,0.01
1.306,0.12,-0.06,0.10,-0.03,-0.00,0.01
1.307,0.12,-0.06,0.10,-0.02,-0.00,0.01
1.307,0.12,-0.04,0.12,-0.02,-0.00,0.01
1.308,0.12,-0.04,0.12,-0.02,-0.01,0.01
1.308,0.12,-0.04,0.12,-0.01,-0.01,0.01
1.308,0.12,-0.03,0.11,-0.01,-0.01,0.01
1.309,0.12,-0.03,0.11,-0.01,-0.01,0.00
1.309,0.12,-0.03,0.11,-0.01,-0.01,0.00
1.309,0.12,-0.02,0.08,-0.01,-0.01,0.00
1.31,0.12,-0.02,0.08,-0.01,-0.01,0.00
1.313,0.12,-0.02,0.08,-0.01,-0.01,-0.00
1.313,0.09,-0.03,0.06,-0.01,-0.01,-0.00
1.314,0.09,-0.03,0.06,-0.00,-0.01,-0.00
1.318,0.09,-0.03,0.06,-0.01,-0.01,-0.00
1.319,0.08,-0.04,0.04,-0.01,-0.01,-0.00
1.319,0.08,-0.04,0.04,-0.01,-0.01,-0.01
1.321,0.08,-0.04,0.04,-0.00,-0.01,-0.01
1.322,0.08,-0.03,0.02,-0.00,-0.01,-0.01
1.323,0.08,-0.03,0.02,-0.01,-0.01,-0.01
1.325,0.08,-0.03,0.02,-0.01,-0.01,-0.01
1.325,0.08,-0.04,-0.02,-0.01,-0.01,-0.01
1.326,0.08,-0.04,-0.02,-0.01,-0.01,-0.01
1.329,0.08,-0.04,-0.02,-0.01,-0.01,-0.01
1.33,0.06,-0.04,-0.05,-0.01,-0.01,-0.01
1.33,0.06,-0.04,-0.05,-0.01,-0.01,-0.01
1.333,0.06,-0.04,-0.05,-0.01,-0.01,-0.01
1.333,0.06,-0.04,-0.08,-0.01,-0.01,-0.01
1.334,0.06,-0.04,-0.08,-0.01,-0.01,-0.01
1.337,0.06,-0.04,-0.08,-0.02,-0.01,-0.01
1.337,0.07,-0.05,-0.12,-0.02,-0.01,-0.01
1.339,0.07,-0.05,-0.12,-0.02,-0.01,-0.01
1.341,0.07,-0.05,-0.14,-0.02,-0.01,-0.01
1.341,0.07,-0.05,-0.14,-0.02,-0.01,-0.01
1.342,0.07,-0.05,-0.14,-0.02,-0.01,-0.02
1.345,0.07,-0.05,-0.14,-0.02,-0.00,-0.01
1.345,0.07,-0.05,-0.17,-0.02,-0.00,-0.01
1.346,0.07,-0.05,-0.17,-0.03,-0.00,-0.02
1.349,0.06,-0.05,-0.21,-0.03,-0.00,-0.02
1.35,0.06,-0.05,-0.21,-0.03,0.00,-0.01
1.35,0.06,-0.05,-0.21,-0.03,0.01,-0.01
1.356,0.06,-0.05,-0.21,-0.04,0.01,-0.02
1.357,0.06,-0.05,-0.21,-0.03,0.02,-0.01
1.357,0.09,-0.04,-0.22,-0.03,0.02,-0.01
1.357,0.09,-0.04,-0.22,-0.03,0.02,-0.02
1.358,0.13,-0.03,-0.24,-0.03,0.02,-0.02
1.358,0.13,-0.03,-0.24,-0.04,0.03,-0.02
1.361,0.19,-0.03,-0.26,-0.04,0.03,-0.02
1.362,0.19,-0.03,-0.26,-0.04,0.04,-0.02
1.362,0.19,-0.03,-0.26,-0.04,0.05,-0.02
1.364,0.24,-0.05,-0.30,-0.04,0.05,-0.02
1.365,0.24,-0.05,-0.30,-0.04,0.06,-0.02
1.366,0.24,-0.05,-0.30,-0.04,0.07,-0.02
1.368,0.24,-0.05,-0.30,-0.04,0.09,-0.02
1.369,0.29,-0.07,-0.32,-0.04,0.09,-0.02
1.37,0.29,-0.07,-0.32,-0.04,0.10,-0.03
1.373,0.29,-0.07,-0.32,-0.04,0.11,-0.03
1.373,0.36,-0.09,-0.36,-0.04,0.11,-0.03
1.374,0.36,-0.09,-0.36,-0.04,0.12,-0.04
1.376,0.36,-0.09,-0.36,-0.04,0.13,-0.04
1.377,0.39,-0.12,-0.33,-0.04,0.13,-0.04
1.378,0.39,-0.12,-0.33,-0.04,0.15,-0.05
1.38,0.39,-0.12,-0.33,-0.04,0.17,-0.05
1.381,0.39,-0.16,-0.33,-0.04,0.17,-0.05
1.382,0.39,-0.16,-0.33,-0.04,0.18,-0.05
1.384,0.39,-0.16,-0.33,-0.03,0.20,-0.06
1.385,0.40,-0.15,-0.34,-0.03,0.20,-0.06
1.386,0.40,-0.15,-0.34,-0.03,0.22,-0.06
1.389,0.40,-0.15,-0.34,-0.03,0.23,-0.06
1.389,0.40,-0.13,-0.35,-0.03,0.23,-0.06
1.39,0.40,-0.13,-0.35,-0.03,0.25,-0.06
1.392,0.40,-0.13,-0.35,-0.03,0.27,-0.06
1.393,0.39,-0.10,-0.34,-0.03,0.27,-0.06
1.394,0.39,-0.10,-0.34,-0.02,0.28,-0.06
1.396,0.39,-0.10,-0.34,-0.02,0.30,-0.06
1.397,0.34,-0.09,-0.36,-0.02,0.30,-0.06
1.398,0.34,-0.09,-0.36,-0.02,0.31,-0.06
1.406,0.34,-0.09,-0.36,-0.02,0.33,-0.06
1.407,0.23,-0.05,-0.37,-0.02,0.33,-0.06
1.407,0.23,-0.05,-0.37,-0.02,0.36,-0.06
1.408,0.23,-0.05,-0.37,-0.01,0.38,-0.06
1.408,0.16,-0.04,-0.39,-0.01,0.38,-0.06
1.408,0.16,-0.04,-0.39,-0.02,0.42,-0.05
1.409,0.16,-0.04,-0.39,-0.01,0.45,-0.05
1.409,0.12,0.00,-0.47,-0.01,0.45,-0.05
1.41,0.12,0.00,-0.47,-0.02,0.49,-0.04
1.413,0.12,0.00,-0.47,-0.02,0.54,-0.04
1.414,0.12,0.04,-0.60,-0.02,0.54,-0.04
1.414,0.12,0.04,-0.60,-0.03,0.59,-0.03
1.418,0.12,0.04,-0.60,-0.04,0.64,-0.03
1.418,0.16,0.04,-0.83,-0.04,0.64,-0.03
1.419,0.16,0.04,-0.83,-0.04,0.70,-0.02
1.421,0.16,0.04,-0.83,-0.05,0.76,-0.01
1.421,0.15,0.02,-1.05,-0.05,0.76,-0.01
1.422,0.15,0.02,-1.05,-0.06,0.82,-0.00
1.424,0.15,0.02,-1.05,-0.07,0.88,0.01
1.425,0.14,-0.01,-1.25,-0.07,0.88,0.01
1.426,0.14,-0.01,-1.25,-0.07,0.95,0.03
1.428,0.14,-0.01,-1.25,-0.09,1.01,0.04
1.429,0.09,-0.02,-1.41,-0.09,1.01,0.04
1.43,0.09,-0.02,-1.41,-0.09,1.08,0.05
1.432,0.09,-0.02,-1.41,-0.11,1.14,0.07
1.433,0.04,-0.01,-1.56,-0.11,1.14,0.07
1.434,0.04,-0.01,-1.56,-0.12,1.20,0.09
1.436,0.04,-0.01,-1.56,-0.14,1.26,0.10
1.437,0.07,0.05,-1.79,-0.14,1.26,0.10
1.438,0.07,0.05,-1.79,-0.15,1.32,0.10
1.44,0.07,0.05,-1.79,-0.17,1.38,0.10
1.441,0.60,-0.09,-1.81,-0.17,1.38,0.10
1.442,0.60,-0.09,-1.81,-0.19,1.44,0.11
1.444,0.60,-0.09,-1.81,-0.21,1.50,0.12
1.444,0.92,-0.13,-1.87,-0.21,1.50,0.12
1.446,0.92,-0.13,-1.87,-0.22,1.56,0.14
1.448,0.92,-0.13,-1.87,-0.24,1.63,0.16
1.448,0.37,0.22,-1.92,-0.24,1.63,0.16
1.45,0.37,0.22,-1.92,-0.27,1.70,0.18
1.452,0.37,0.22,-1.92,-0.30,1.79,0.20
1.452,0.12,0.31,-2.08,-0.30,1.79,0.20
1.454,0.12,0.31,-2.08,-0.34,1.88,0.22
1.456,0.12,0.31,-2.08,-0.39,1.96,0.23
1.457,0.23,0.12,-2.54,-0.39,1.96,0.23
1.458,0.23,0.12,-2.54,-0.43,2.03,0.24
1.46,0.23,0.12,-2.54,-0.47,2.09,0.24
1.46,0.44,-0.16,-2.93,-0.47,2.09,0.24
1.462,0.44,-0.16,-2.93,-0.51,2.12,0.25
1.464,0.44,-0.16,-2.93,-0.55,2.15,0.26
1.464,0.58,-0.26,-2.93,-0.55,2.15,0.26
1.466,0.58,-0.26,-2.93,-0.59,2.18,0.26
1.468,0.58,-0.26,-2.93,-0.63,2.21,0.27
1.468,0.75,-0.24,-2.86,-0.63,2.21,0.27
1.47,0.75,-0.24,-2.86,-0.67,2.22,0.27
1.472,0.75,-0.24,-2.86,-0.71,2.23,0.28
1.472,0.72,-0.17,-2.82,-0.71,2.23,0.28
1.474,0.72,-0.17,-2.82,-0.74,2.23,0.28
1.476,0.72,-0.17,-2.82,-0.78,2.23,0.29
1.476,0.64,-0.05,-2.56,-0.78,2.23,0.29
1.478,0.64,-0.05,-2.56,-0.81,2.23,0.30
1.48,0.64,-0.05,-2.56,-0.83,2.22,0.31
1.48,0.65,0.09,-2.24,-0.83,2.22,0.31
1.486,0.65,0.09,-2.24,-0.85,2.21,0.32
1.487,0.65,0.09,-2.24,-0.88,2.20,0.33
1.487,0.72,0.23,-1.84,-0.88,2.20,0.33
1.487,0.72,0.23,-1.84,-0.90,2.19,0.35
1.488,0.72,0.23,-1.84,-0.92,2.17,0.36
1.488,0.84,0.36,-1.40,-0.92,2.17,0.36
1.49,0.84,0.36,-1.40,-0.93,2.15,0.37
1.492,0.84,0.36,-1.40,-0.95,2.12,0.38
1.495,0.93,0.62,-1.27,-0.95,2.12,0.38
1.495,0.93,0.62,-1.27,-0.96,2.10,0.40
1.496,0.93,0.62,-1.27,-0.97,2.08,0.42
1.496,0.87,0.90,-1.17,-0.97,2.08,0.42
1.498,0.87,0.90,-1.17,-0.98,2.06,0.44
1.5,0.87,0.90,-1.17,-0.99,2.03,0.47
1.5,0.62,0.89,-1.10,-0.99,2.03,0.47
1.502,0.62,0.89,-1.10,-1.00,2.00,0.50
1.504,0.62,0.89,-1.10,-1.01,1.98,0.54
1.505,0.41,0.87,-1.08,-1.01,1.98,0.54
1.506,0.41,0.87,-1.08,-1.02,1.95,0.57
1.508,0.41,0.87,-1.08,-1.03,1.92,0.61
1.508,0.18,0.77,-1.00,-1.03,1.92,0.61
1.51,0.18,0.77,-1.00,-1.04,1.90,0.66
1.512,0.18,0.77,-1.00,-1.04,1.88,0.70
1.512,0.04,0.72,-0.89,-1.04,1.88,0.70
1.514,0.04,0.72,-0.89,-1.06,1.86,0.75
1.516,0.04,0.72,-0.89,-1.07,1.85,0.80
1.516,-0.13,0.60,-0.71,-1.07,1.85,0.80
1.518,-0.13,0.60,-0.71,-1.08,1.84,0.86
1.52,-0.13,0.60,-0.71,-1.09,1.83,0.92
1.52,-0.23,0.48,-0.58,-1.09,1.83,0.92
1.522,-0.23,0.48,-0.58,-1.10,1.83,0.97
1.524,-0.23,0.48,-0.58,-1.11,1.83,1.01
1.525,-0.24,0.46,-0.49,-1.11,1.83,1.01
1.526,-0.24,0.46,-0.49,-1.13,1.83,1.06
1.528,-0.24,0.46,-0.49,-1.15,1.83,1.11
1.528,0.00,0.54,-0.52,-1.15,1.83,1.11
1.53,0.00,0.54,-0.52,-1.17,1.83,1.16
1.533,0.00,0.54,-0.52,-1.19,1.84,1.21
1.533,0.02,0.48,-0.44,-1.19,1.84,1.21
1.534,0.02,0.48,-0.44,-1.21,1.84,1.26
1.536,0.02,0.48,-0.44,-1.23,1.85,1.32
1.536,0.05,0.41,-0.41,-1.23,1.85,1.32
1.538,0.05,0.41,-0.41,-1.26,1.86,1.37
1.54,0.05,0.41,-0.41,-1.28,1.87,1.42
1.54,0.03,0.33,-0.42,-1.28,1.87,1.42
1.541,0.03,0.33,-0.42,-1.30,1.87,1.48
1.544,0.03,0.33,-0.42,-1.33,1.88,1.54
1.544,-0.00,0.19,-0.40,-1.33,1.88,1.54
1.545,-0.00,0.19,-0.40,-1.35,1.89,1.60
1.548,-0.00,0.19,-0.40,-1.37,1.90,1.65
1.548,0.02,0.02,-0.37,-1.37,1.90,1.65
1.549,0.02,0.02,-0.37,-1.39,1.91,1.70
1.552,0.02,0.02,-0.37,-1.42,1.92,1.75
1.552,0.18,-0.02,-0.35,-1.42,1.92,1.75
1.554,0.18,-0.02,-0.35,-1.44,1.94,1.80
1.556,0.18,-0.02,-0.35,-1.46,1.95,1.84
1.556,0.39,-0.12,-0.32,-1.46,1.95,1.84
1.557,0.39,-0.12,-0.32,-1.48,1.97,1.89
1.56,0.39,-0.12,-0.32,-1.51,1.99,1.92
1.56,0.70,-0.11,-0.28,-1.51,1.99,1.92
1.561,0.70,-0.11,-0.28,-1.53,2.02,1.95
1.564,0.70,-0.11,-0.28,-1.56,2.05,1.98
1.564,0.96,-0.10,-0.22,-1.56,2.05,1.98
1.566,0.96,-0.10,-0.22,-1.58,2.07,2.00
1.568,0.96,-0.10,-0.22,-1.60,2.10,2.03
1.568,1.21,-0.09,-0.19,-1.60,2.10,2.03
1.569,1.21,-0.09,-0.19,-1.62,2.13,2.04
1.572,1.21,-0.09,-0.19,-1.65,2.15,2.06
1.572,1.45,-0.12,-0.24,-1.65,2.15,2.06
1.573,1.45,-0.12,-0.24,-1.67,2.18,2.08
1.576,1.45,-0.12,-0.24,-1.70,2.21,2.09
1.576,1.60,-0.20,-0.27,-1.70,2.21,2.09
1.577,1.60,-0.20,-0.27,-1.72,2.23,2.11
1.58,1.60,-0.20,-0.27,-1.75,2.24,2.11
1.58,1.77,-0.28,-0.29,-1.75,2.24,2.11
1.581,1.77,-0.28,-0.29,-1.77,2.23,2.12
1.584,1.77,-0.28,-0.29,-1.79,2.20,2.13
1.584,2.11,-0.39,-0.39,-1.79,2.20,2.13
1.585,2.11,-0.39,-0.39,-1.81,2.17,2.14
1.588,2.11,-0.39,-0.39,-1.82,2.14,2.17
1.588,2.63,-0.64,-0.84,-1.82,2.14,2.17
1.59,2.63,-0.64,-0.84,-1.83,2.09,2.20
1.592,2.63,-0.64,-0.84,-1.83,2.04,2.23
1.592,2.09,-0.95,-0.61,-1.83,2.04,2.23
1.593,2.09,-0.95,-0.61,-1.83,2.02,2.27
1.595,2.09,-0.95,-0.61,-1.81,2.02,2.32
1.596,1.93,-1.03,-0.67,-1.81,2.02,2.32
1.597,1.93,-1.03,-0.67,-1.80,2.04,2.36
1.606,1.93,-1.03,-0.67,-1.78,2.06,2.40
1.606,1.18,-1.07,0.24,-1.78,2.06,2.40
1.607,1.18,-1.07,0.24,-1.75,2.08,2.45
1.607,1.18,-1.07,0.24,-1.73,2.10,2.49
1.607,0.94,-1.08,0.60,-1.73,2.10,2.49
1.608,0.94,-1.08,0.60,-1.70,2.13,2.53
1.608,0.94,-1.08,0.60,-1.67,2.16,2.56
1.608,0.94,-0.99,0.79,-1.67,2.16,2.56
1.609,0.94,-0.99,0.79,-1.64,2.19,2.59
1.612,0.94,-0.99,0.79,-1.61,2.22,2.62
1.612,1.11,-0.97,0.85,-1.61,2.22,2.62
1.613,1.11,-0.97,0.85,-1.58,2.26,2.66
1.616,1.11,-0.97,0.85,-1.54,2.30,2.68
1.617,1.15,-0.96,0.97,-1.54,2.30,2.68
1.617,1.15,-0.96,0.97,-1.50,2.33,2.71
1.62,1.15,-0.96,0.97,-1.45,2.38,2.74
1.62,1.11,-1.00,1.09,-1.45,2.38,2.74
1.621,1.11,-1.00,1.09,-1.41,2.42,2.75
1.624,1.11,-1.00,1.09,-1.36,2.47,2.78
1.624,1.07,-1.02,1.22,-1.36,2.47,2.78
1.627,1.07,-1.02,1.22,-1.31,2.52,2.79
1.628,1.07,-1.02,1.22,-1.26,2.58,2.81
1.628,1.01,-1.02,1.37,-1.26,2.58,2.81
1.629,1.01,-1.02,1.37,-1.20,2.64,2.83
1.631,1.01,-1.02,1.37,-1.14,2.70,2.84
1.632,0.87,-1.02,1.58,-1.14,2.70,2.84
1.633,0.87,-1.02,1.58,-1.08,2.76,2.86
1.636,0.87,-1.02,1.58,-1.02,2.83,2.86
1.636,0.77,-1.05,1.77,-1.02,2.83,2.86
1.637,0.77,-1.05,1.77,-0.95,2.91,2.87
1.64,0.77,-1.05,1.77,-0.88,2.99,2.88
1.64,0.63,-1.10,2.04,-0.88,2.99,2.88
1.641,0.63,-1.10,2.04,-0.80,3.07,2.88
1.644,0.63,-1.10,2.04,-0.73,3.15,2.87
1.644,0.59,-1.18,2.29,-0.73,3.15,2.87
1.645,0.59,-1.18,2.29,-0.65,3.25,2.87
1.647,0.59,-1.18,2.29,-0.57,3.34,2.86
1.648,0.54,-1.27,2.51,-0.57,3.34,2.86
1.649,0.54,-1.27,2.51,-0.49,3.44,2.84
1.651,0.54,-1.27,2.51,-0.41,3.55,2.83
1.652,0.49,-1.38,2.72,-0.41,3.55,2.83
1.653,0.49,-1.38,2.72,-0.32,3.66,2.80
1.656,0.49,-1.38,2.72,-0.24,3.77,2.78
1.656,0.52,-1.50,2.90,-0.24,3.77,2.78
1.657,0.52,-1.50,2.90,-0.15,3.88,2.75
1.659,0.52,-1.50,2.90,-0.07,4.00,2.72
1.66,0.52,-1.63,3.03,-0.07,4.00,2.72
1.661,0.52,-1.63,3.03,0.01,4.10,2.69
1.663,0.52,-1.63,3.03,0.09,4.20,2.65
1.664,0.55,-1.78,3.00,0.09,4.20,2.65
1.666,0.55,-1.78,3.00,0.17,4.30,2.61
1.667,0.55,-1.78,3.00,0.25,4.39,2.57
1.668,0.60,-1.95,2.84,0.25,4.39,2.57
1.669,0.60,-1.95,2.84,0.32,4.47,2.50
1.672,0.60,-1.95,2.84,0.34,4.45,2.27
1.672,0.58,-2.18,2.61,0.34,4.45,2.27
1.673,0.58,-2.18,2.61,0.30,4.29,1.84
1.675,0.58,-2.18,2.61,0.21,4.01,1.39
1.675,3.57,-2.43,1.20,0.21,4.01,1.39
1.677,3.57,-2.43,1.20,0.11,3.71,0.92
1.679,3.57,-2.43,1.20,0.05,3.46,0.56
1.679,5.85,-2.79,-1.47,0.05,3.46,0.56
1.681,5.85,-2.79,-1.47,0.02,3.23,0.29
1.683,5.85,-2.79,-1.47,-0.02,2.97,0.06
1.684,2.89,-3.51,-0.57,-0.02,2.97,0.06
1.685,2.89,-3.51,-0.57,-0.05,2.72,-0.14
1.688,2.89,-3.51,-0.57,-0.08,2.46,-0.34
1.688,0.52,-3.83,-0.05,-0.08,2.46,-0.34
1.689,0.52,-3.83,-0.05,-0.11,2.19,-0.53
1.691,0.52,-3.83,-0.05,-0.13,1.95,-0.71
1.692,0.99,-3.59,0.01,-0.13,1.95,-0.71
1.693,0.99,-3.59,0.01,-0.15,1.72,-0.86
1.695,0.99,-3.59,0.01,-0.17,1.52,-1.01
1.695,1.29,-3.09,0.09,-0.17,1.52,-1.01
1.697,1.29,-3.09,0.09,-0.16,1.36,-1.15
1.703,1.29,-3.09,0.09,-0.15,1.23,-1.28
1.704,1.28,-2.96,0.37,-0.15,1.23,-1.28
1.704,1.28,-2.96,0.37,-0.11,1.15,-1.39
1.704,1.28,-2.96,0.37,-0.07,1.10,-1.49
1.704,1.17,-2.70,1.02,-0.07,1.10,-1.49
1.705,1.17,-2.70,1.02,-0.01,1.07,-1.57
1.707,1.17,-2.70,1.02,0.05,1.05,-1.64
1.708,0.97,-2.34,1.66,0.05,1.05,-1.64
1.709,0.97,-2.34,1.66,0.11,1.02,-1.70
1.711,0.97,-2.34,1.66,0.18,1.00,-1.75
1.712,0.87,-2.16,1.98,0.18,1.00,-1.75
1.713,0.87,-2.16,1.98,0.25,0.98,-1.78
1.716,0.87,-2.16,1.98,0.30,0.95,-1.81
1.716,0.76,-1.99,1.96,0.30,0.95,-1.81
1.717,0.76,-1.99,1.96,0.37,0.91,-1.83
1.719,0.76,-1.99,1.96,0.43,0.84,-1.82
1.719,0.55,-1.74,1.74,0.43,0.84,-1.82
1.721,0.55,-1.74,1.74,0.51,0.72,-1.77
1.724,0.55,-1.74,1.74,0.60,0.57,-1.68
1.724,0.00,-1.72,1.36,0.60,0.57,-1.68
1.725,0.00,-1.72,1.36,0.69,0.39,-1.52
1.727,0.00,-1.72,1.36,0.76,0.27,-1.34
1.727,-0.60,-1.64,0.90,0.76,0.27,-1.34
1.729,-0.60,-1.64,0.90,0.82,0.22,-1.16
1.731,-0.60,-1.64,0.90,0.85,0.26,-1.03
1.732,-1.43,-1.20,0.67,0.85,0.26,-1.03
1.733,-1.43,-1.20,0.67,0.84,0.37,-0.89
1.735,-1.43,-1.20,0.67,0.82,0.54,-0.74
1.736,-2.01,-0.49,0.68,0.82,0.54,-0.74
1.737,-2.01,-0.49,0.68,0.78,0.72,-0.59
1.739,-2.01,-0.49,0.68,0.73,0.92,-0.44
1.74,-2.26,-0.44,0.59,0.73,0.92,-0.44
1.741,-2.26,-0.44,0.59,0.67,1.14,-0.33
1.743,-2.26,-0.44,0.59,0.61,1.37,-0.23
1.743,-2.24,-0.70,0.24,0.61,1.37,-0.23
1.745,-2.24,-0.70,0.24,0.55,1.59,-0.17
1.747,-2.24,-0.70,0.24,0.47,1.79,-0.12
1.747,-2.11,-0.81,-0.16,0.47,1.79,-0.12
1.749,-2.11,-0.81,-0.16,0.40,1.95,-0.11
1.751,-2.11,-0.81,-0.16,0.32,2.07,-0.10
1.751,-1.56,-1.23,-0.92,0.32,2.07,-0.10
1.753,-1.56,-1.23,-0.92,0.24,2.12,-0.11
1.755,-1.56,-1.23,-0.92,0.16,2.07,-0.13
1.756,-0.63,-1.67,-1.94,0.16,2.07,-0.13
1.757,-0.63,-1.67,-1.94,0.09,2.02,-0.16
1.759,-0.63,-1.67,-1.94,0.02,1.94,-0.19
1.759,1.50,-1.88,-2.66,0.02,1.94,-0.19
1.761,1.50,-1.88,-2.66,-0.06,1.80,-0.23
1.763,1.50,-1.88,-2.66,-0.13,1.62,-0.26
1.763,1.80,-1.65,-3.12,-0.13,1.62,-0.26
1.764,1.80,-1.65,-3.12,-0.21,1.43,-0.29
1.767,1.80,-1.65,-3.12,-0.28,1.23,-0.32
1.767,2.20,-1.48,-3.53,-0.28,1.23,-0.32
1.769,2.20,-1.48,-3.53,-0.37,1.03,-0.33
1.771,2.20,-1.48,-3.53,-0.46,0.85,-0.34
1.772,2.34,-1.34,-3.76,-0.46,0.85,-0.34
1.773,2.34,-1.34,-3.76,-0.56,0.70,-0.34
1.775,2.34,-1.34,-3.76,-0.67,0.59,-0.32
1.775,2.63,-1.57,-3.95,-0.67,0.59,-0.32
1.777,2.63,-1.57,-3.95,-0.79,0.52,-0.31
1.779,2.63,-1.57,-3.95,-0.91,0.48,-0.29
1.779,2.89,-2.10,-4.06,-0.91,0.48,-0.29
1.781,2.89,-2.10,-4.06,-1.03,0.47,-0.26
1.786,2.89,-2.10,-4.06,-1.15,0.48,-0.24
1.786,3.07,-2.72,-4.03,-1.15,0.48,-0.24
1.787,3.07,-2.72,-4.03,-1.27,0.50,-0.22
1.787,3.07,-2.72,-4.03,-1.38,0.51,-0.20
1.788,3.04,-3.21,-3.82,-1.38,0.51,-0.20
1.789,3.04,-3.21,-3.82,-1.48,0.51,-0.18
1.791,3.04,-3.21,-3.82,-1.58,0.48,-0.16
1.792,2.80,-3.40,-3.46,-1.58,0.48,-0.16
1.793,2.80,-3.40,-3.46,-1.66,0.43,-0.15
1.795,2.80,-3.40,-3.46,-1.72,0.34,-0.14
1.795,2.43,-3.32,-3.07,-1.72,0.34,-0.14
1.797,2.43,-3.32,-3.07,-1.77,0.24,-0.14
1.799,2.43,-3.32,-3.07,-1.80,0.12,-0.15
1.799,2.05,-3.13,-2.67,-1.80,0.12,-0.15
1.801,2.05,-3.13,-2.67,-1.82,-0.01,-0.15
1.803,2.05,-3.13,-2.67,-1.84,-0.14,-0.16
1.803,1.77,-2.94,-2.30,-1.84,-0.14,-0.16
1.805,1.77,-2.94,-2.30,-1.84,-0.26,-0.16
1.807,1.77,-2.94,-2.30,-1.84,-0.36,-0.17
1.807,1.56,-2.90,-1.88,-1.84,-0.36,-0.17
1.809,1.56,-2.90,-1.88,-1.84,-0.43,-0.18
1.811,1.56,-2.90,-1.88,-1.85,-0.47,-0.18
1.811,1.43,-2.96,-1.45,-1.85,-0.47,-0.18
1.812,1.43,-2.96,-1.45,-1.87,-0.50,-0.19
1.815,1.43,-2.96,-1.45,-1.88,-0.50,-0.20
1.815,1.24,-3.22,-1.15,-1.88,-0.50,-0.20
1.817,1.24,-3.22,-1.15,-1.90,-0.48,-0.20
1.819,1.24,-3.22,-1.15,-1.93,-0.44,-0.21
1.819,1.17,-3.60,-1.06,-1.93,-0.44,-0.21
1.821,1.17,-3.60,-1.06,-1.96,-0.37,-0.23
1.823,1.17,-3.60,-1.06,-2.00,-0.30,-0.24
1.824,1.15,-3.91,-1.05,-2.00,-0.30,-0.24
1.824,1.15,-3.91,-1.05,-2.03,-0.23,-0.25
1.827,1.15,-3.91,-1.05,-2.06,-0.14,-0.27
1.827,1.27,-4.17,-1.06,-2.06,-0.14,-0.27
1.828,1.27,-4.17,-1.06,-2.09,-0.05,-0.29
1.831,1.27,-4.17,-1.06,-2.11,0.05,-0.33
1.831,1.57,-4.28,-1.07,-2.11,0.05,-0.33
1.832,1.57,-4.28,-1.07,-2.14,0.15,-0.36
1.835,1.57,-4.28,-1.07,-2.16,0.27,-0.40
1.835,1.97,-4.32,-0.97,-2.16,0.27,-0.40
1.837,1.97,-4.32,-0.97,-2.18,0.40,-0.45
1.839,1.97,-4.32,-0.97,-2.20,0.54,-0.50
1.839,2.35,-4.34,-0.81,-2.20,0.54,-0.50
1.84,2.35,-4.34,-0.81,-2.21,0.67,-0.56
1.843,2.35,-4.34,-0.81,-2.23,0.80,-0.63
1.843,2.73,-4.42,-0.59,-2.23,0.80,-0.63
1.844,2.73,-4.42,-0.59,-2.23,0.95,-0.70
1.847,2.73,-4.42,-0.59,-2.24,1.08,-0.77
1.847,3.56,-4.76,-0.34,-2.24,1.08,-0.77
1.849,3.56,-4.76,-0.34,-2.24,1.21,-0.85
1.851,3.56,-4.76,-0.34,-2.24,1.33,-0.93
1.851,3.69,-4.80,0.05,-2.24,1.33,-0.93
1.853,3.69,-4.80,0.05,-2.24,1.45,-1.01
1.855,3.69,-4.80,0.05,-2.23,1.56,-1.09
1.855,3.95,-4.87,0.09,-2.23,1.56,-1.09
1.857,3.95,-4.87,0.09,-2.22,1.67,-1.16
1.859,3.95,-4.87,0.09,-2.21,1.77,-1.23
1.859,3.95,-4.94,0.24,-2.21,1.77,-1.23
1.86,3.95,-4.94,0.24,-2.20,1.87,-1.30
1.863,3.95,-4.94,0.24,-2.19,1.96,-1.37
1.863,3.96,-5.08,0.34,-2.19,1.96,-1.37
1.864,3.96,-5.08,0.34,-2.17,2.04,-1.43
1.867,3.96,-5.08,0.34,-2.15,2.11,-1.48
1.867,3.97,-5.06,0.50,-2.15,2.11,-1.48
1.868,3.97,-5.06,0.50,-2.12,2.15,-1.53
1.871,3.97,-5.06,0.50,-2.08,2.18,-1.58
1.871,3.87,-4.99,0.69,-2.08,2.18,-1.58
1.873,3.87,-4.99,0.69,-2.04,2.20,-1.63
1.875,3.87,-4.99,0.69,-2.00,2.21,-1.67
1.875,3.93,-4.79,0.95,-2.00,2.21,-1.67
1.876,3.93,-4.79,0.95,-1.95,2.20,-1.71
1.879,3.93,-4.79,0.95,-1.90,2.18,-1.75
1.879,4.10,-4.66,1.16,-1.90,2.18,-1.75
1.88,4.10,-4.66,1.16,-1.84,2.15,-1.79
1.889,4.10,-4.66,1.16,-1.79,2.12,-1.83
1.89,4.40,-4.60,1.33,-1.79,2.12,-1.83
1.89,4.40,-4.60,1.33,-1.72,2.08,-1.87
1.891,4.40,-4.60,1.33,-1.66,2.02,-1.90
1.891,4.71,-4.52,1.45,-1.66,2.02,-1.90
1.891,4.71,-4.52,1.45,-1.59,1.95,-1.94
1.891,4.71,-4.52,1.45,-1.53,1.88,-1.98
1.895,5.00,-4.51,1.42,-1.53,1.88,-1.98
1.895,5.00,-4.51,1.42,-1.46,1.79,-2.02
1.896,5.00,-4.51,1.42,-1.40,1.69,-2.07
1.896,5.34,-4.58,1.20,-1.40,1.69,-2.07
1.896,5.34,-4.58,1.20,-1.34,1.60,-2.12
1.901,5.34,-4.58,1.20,-1.29,1.49,-2.16
1.901,5.70,-4.75,0.75,-1.29,1.49,-2.16
1.902,5.70,-4.75,0.75,-1.25,1.40,-2.21
1.903,5.70,-4.75,0.75,-1.22,1.30,-2.26
1.903,5.94,-4.93,0.16,-1.22,1.30,-2.26
1.904,5.94,-4.93,0.16,-1.19,1.22,-2.30
1.907,5.94,-4.93,0.16,-1.17,1.14,-2.35
1.907,6.00,-5.01,-0.54,-1.17,1.14,-2.35
1.908,6.00,-5.01,-0.54,-1.16,1.06,-2.39
1.911,6.00,-5.01,-0.54,-1.17,0.99,-2.43
1.911,5.89,-5.02,-1.36,-1.17,0.99,-2.43
1.912,5.89,-5.02,-1.36,-1.18,0.92,-2.47
1.915,5.89,-5.02,-1.36,-1.20,0.86,-2.51
1.915,5.66,-5.03,-2.23,-1.20,0.86,-2.51
1.916,5.66,-5.03,-2.23,-1.23,0.82,-2.54
1.919,5.66,-5.03,-2.23,-1.28,0.77,-2.57
1.919,5.29,-5.07,-3.03,-1.28,0.77,-2.57
1.92,5.29,-5.07,-3.03,-1.33,0.74,-2.60
1.923,5.29,-5.07,-3.03,-1.39,0.71,-2.62
1.923,4.76,-5.29,-3.76,-1.39,0.71,-2.62
1.924,4.76,-5.29,-3.76,-1.45,0.69,-2.65
1.927,4.76,-5.29,-3.76,-1.52,0.66,-2.67
1.927,4.09,-5.63,-4.40,-1.52,0.66,-2.67
1.928,4.09,-5.63,-4.40,-1.59,0.63,-2.69
1.93,4.09,-5.63,-4.40,-1.67,0.59,-2.72
1.931,3.43,-6.02,-4.98,-1.67,0.59,-2.72
1.933,3.43,-6.02,-4.98,-1.75,0.56,-2.74
1.935,3.43,-6.02,-4.98,-1.83,0.52,-2.77
1.935,2.83,-6.34,-5.53,-1.83,0.52,-2.77
1.936,2.83,-6.34,-5.53,-1.92,0.49,-2.80
1.939,2.83,-6.34,-5.53,-2.01,0.47,-2.82
1.939,2.19,-6.58,-6.03,-2.01,0.47,-2.82
1.94,2.19,-6.58,-6.03,-2.11,0.46,-2.85
1.943,2.19,-6.58,-6.03,-2.22,0.46,-2.87
1.943,1.48,-6.75,-6.46,-2.22,0.46,-2.87
1.944,1.48,-6.75,-6.46,-2.33,0.46,-2.90
1.946,1.48,-6.75,-6.46,-2.44,0.48,-2.92
1.947,0.69,-6.83,-6.84,-2.44,0.48,-2.92
1.948,0.69,-6.83,-6.84,-2.56,0.50,-2.94
1.951,0.69,-6.83,-6.84,-2.69,0.54,-2.96
1.951,-0.22,-6.85,-7.10,-2.69,0.54,-2.96
1.952,-0.22,-6.85,-7.10,-2.81,0.58,-2.97
1.955,-0.22,-6.85,-7.10,-2.94,0.63,-2.99
1.955,-1.17,-6.80,-7.27,-2.94,0.63,-2.99
1.956,-1.17,-6.80,-7.27,-3.06,0.68,-3.00
1.959,-1.17,-6.80,-7.27,-3.19,0.74,-3.02
1.959,-2.08,-6.72,-7.33,-3.19,0.74,-3.02
1.96,-2.08,-6.72,-7.33,-3.31,0.80,-3.03
1.962,-2.08,-6.72,-7.33,-3.43,0.86,-3.04
1.963,-2.88,-6.59,-7.28,-3.43,0.86,-3.04
1.964,-2.88,-6.59,-7.28,-3.55,0.92,-3.05
1.966,-2.88,-6.59,-7.28,-3.67,0.99,-3.06
1.967,-3.56,-6.45,-7.10,-3.67,0.99,-3.06
1.968,-3.56,-6.45,-7.10,-3.77,1.06,-3.07
1.97,-3.56,-6.45,-7.10,-3.88,1.13,-3.08
1.971,-4.23,-6.35,-6.77,-3.88,1.13,-3.08
1.972,-4.23,-6.35,-6.77,-3.97,1.19,-3.08
1.974,-4.23,-6.35,-6.77,-4.06,1.25,-3.08
1.975,-4.95,-6.24,-6.34,-4.06,1.25,-3.08
1.976,-4.95,-6.24,-6.34,-4.14,1.30,-3.08
1.978,-4.95,-6.24,-6.34,-4.21,1.33,-3.07
1.979,-5.69,-5.99,-5.82,-4.21,1.33,-3.07
1.98,-5.69,-5.99,-5.82,-4.27,1.36,-3.06
1.989,-5.69,-5.99,-5.82,-4.32,1.38,-3.04
1.99,-6.40,-5.62,-5.26,-4.32,1.38,-3.04
1.991,-6.40,-5.62,-5.26,-4.36,1.39,-3.01
1.991,-6.40,-5.62,-5.26,-4.40,1.41,-2.98
1.992,-7.07,-5.19,-4.62,-4.40,1.41,-2.98
1.992,-7.07,-5.19,-4.62,-4.44,1.42,-2.94
1.992,-7.07,-5.19,-4.62,-4.46,1.43,-2.89
1.992,-7.74,-4.84,-3.93,-4.46,1.43,-2.89
1.993,-7.74,-4.84,-3.93,-4.48,1.45,-2.83
1.994,-7.74,-4.84,-3.93,-4.48,1.45,-2.78
1.995,-8.28,-4.56,-3.27,-4.48,1.45,-2.78
1.996,-8.28,-4.56,-3.27,-4.48,1.45,-2.72
2.001,-8.28,-4.56,-3.27,-4.47,1.44,-2.67
2.001,-8.56,-4.23,-2.63,-4.47,1.44,-2.67
2.002,-8.56,-4.23,-2.63,-4.46,1.43,-2.62
2.002,-8.56,-4.23,-2.63,-4.43,1.41,-2.57
2.003,-8.53,-3.84,-2.11,-4.43,1.41,-2.57
2.004,-8.53,-3.84,-2.11,-4.41,1.39,-2.52
2.006,-8.53,-3.84,-2.11,-4.38,1.38,-2.47
2.007,-8.42,-3.48,-1.62,-4.38,1.38,-2.47
2.008,-8.42,-3.48,-1.62,-4.35,1.37,-2.42
2.01,-8.42,-3.48,-1.62,-4.32,1.37,-2.38
2.011,-8.31,-3.15,-1.20,-4.32,1.37,-2.38
2.012,-8.31,-3.15,-1.20,-4.28,1.37,-2.34
2.014,-8.31,-3.15,-1.20,-4.24,1.38,-2.30
2.015,-8.24,-2.79,-0.84,-4.24,1.38,-2.30
2.016,-8.24,-2.79,-0.84,-4.20,1.39,-2.26
2.018,-8.24,-2.79,-0.84,-4.16,1.41,-2.22
2.019,-8.20,-2.51,-0.55,-4.16,1.41,-2.22
2.02,-8.20,-2.51,-0.55,-4.13,1.44,-2.18
2.022,-8.20,-2.51,-0.55,-4.09,1.46,-2.15
2.023,-8.24,-2.32,-0.36,-4.09,1.46,-2.15
2.025,-8.24,-2.32,-0.36,-4.05,1.49,-2.11
2.026,-8.24,-2.32,-0.36,-4.02,1.52,-2.08
2.026,-8.33,-2.18,-0.33,-4.02,1.52,-2.08
2.028,-8.33,-2.18,-0.33,-3.99,1.55,-2.05
2.03,-8.33,-2.18,-0.33,-3.97,1.57,-2.02
2.03,-8.46,-2.00,-0.41,-3.97,1.57,-2.02
2.033,-8.46,-2.00,-0.41,-3.95,1.60,-1.99
2.034,-8.46,-2.00,-0.41,-3.93,1.62,-1.97
2.034,-8.61,-1.75,-0.61,-3.93,1.62,-1.97
2.036,-8.61,-1.75,-0.61,-3.92,1.65,-1.95
2.039,-8.61,-1.75,-0.61,-3.91,1.67,-1.93
2.039,-8.76,-1.46,-0.82,-3.91,1.67,-1.93
2.04,-8.76,-1.46,-0.82,-3.90,1.69,-1.91
2.042,-8.76,-1.46,-0.82,-3.90,1.71,-1.89
2.043,-8.93,-1.08,-1.03,-3.90,1.71,-1.89
2.044,-8.93,-1.08,-1.03,-3.90,1.71,-1.87
2.046,-8.93,-1.08,-1.03,-3.90,1.72,-1.86
2.046,-9.16,-0.67,-1.21,-3.90,1.72,-1.86
2.048,-9.16,-0.67,-1.21,-3.91,1.72,-1.84
2.05,-9.16,-0.67,-1.21,-3.92,1.72,-1.82
2.051,-9.47,-0.28,-1.38,-3.92,1.72,-1.82
2.052,-9.47,-0.28,-1.38,-3.93,1.71,-1.80
2.054,-9.47,-0.28,-1.38,-3.95,1.71,-1.78
2.055,-9.84,0.09,-1.46,-3.95,1.71,-1.78
2.056,-9.84,0.09,-1.46,-3.96,1.69,-1.76
2.058,-9.84,0.09,-1.46,-3.98,1.69,-1.73
2.059,-10.28,0.39,-1.42,-3.98,1.69,-1.73
2.06,-10.28,0.39,-1.42,-4.00,1.67,-1.70
2.062,-10.28,0.39,-1.42,-4.02,1.66,-1.67
2.062,-10.78,0.60,-1.27,-4.02,1.66,-1.67
2.064,-10.78,0.60,-1.27,-4.04,1.65,-1.63
2.066,-10.78,0.60,-1.27,-4.05,1.63,-1.59
2.067,-11.31,0.75,-0.97,-4.05,1.63,-1.59
2.068,-11.31,0.75,-0.97,-4.07,1.61,-1.54
2.07,-11.31,0.75,-0.97,-4.08,1.58,-1.50
2.071,-11.85,0.87,-0.59,-4.08,1.58,-1.50
2.072,-11.85,0.87,-0.59,-4.09,1.54,-1.44
2.074,-11.85,0.87,-0.59,-4.10,1.49,-1.38
2.075,-12.36,0.97,-0.12,-4.10,1.49,-1.38
2.076,-12.36,0.97,-0.12,-4.11,1.44,-1.32
2.078,-12.36,0.97,-0.12,-4.11,1.37,-1.24
2.078,-12.93,1.13,0.45,-4.11,1.37,-1.24
2.08,-12.93,1.13,0.45,-4.11,1.31,-1.16
2.083,-12.93,1.13,0.45,-4.11,1.25,-1.07
2.084,-13.52,1.34,1.07,-4.11,1.25,-1.07
2.084,-13.52,1.34,1.07,-4.11,1.18,-0.97
2.086,-13.52,1.34,1.07,-4.10,1.11,-0.87
2.087,-14.08,1.58,1.69,-4.10,1.11,-0.87
2.088,-14.08,1.58,1.69,-4.10,1.05,-0.76
2.09,-14.08,1.58,1.69,-4.09,0.99,-0.64
2.091,-14.48,1.74,2.22,-4.09,0.99,-0.64
2.092,-14.48,1.74,2.22,-4.09,0.93,-0.52
2.094,-14.48,1.74,2.22,-4.09,0.88,-0.41
2.094,-14.66,1.77,2.77,-4.09,0.88,-0.41
2.096,-14.66,1.77,2.77,-4.08,0.85,-0.29
2.098,-14.66,1.77,2.77,-4.07,0.82,-0.18
2.098,-14.56,1.62,3.30,-4.07,0.82,-0.18
2.107,-14.56,1.62,3.30,-4.07,0.80,-0.08
2.108,-14.56,1.62,3.30,-4.05,0.78,0.02
2.109,-14.17,1.42,3.86,-4.05,0.78,0.02
2.109,-14.17,1.42,3.86,-4.03,0.77,0.11
2.11,-14.17,1.42,3.86,-4.01,0.75,0.20
2.111,-13.62,1.23,4.37,-4.01,0.75,0.20
2.112,-13.62,1.23,4.37,-3.99,0.73,0.27
2.113,-13.62,1.23,4.37,-3.96,0.71,0.34
2.113,-12.92,1.13,4.76,-3.96,0.71,0.34
2.114,-12.92,1.13,4.76,-3.93,0.69,0.40
2.115,-12.92,1.13,4.76,-3.89,0.67,0.47
2.115,-12.22,1.14,5.04,-3.89,0.67,0.47
2.116,-12.22,1.14,5.04,-3.85,0.65,0.52
2.12,-12.22,1.14,5.04,-3.81,0.62,0.57
2.121,-11.67,1.26,5.37,-3.81,0.62,0.57
2.122,-11.67,1.26,5.37,-3.76,0.61,0.62
2.122,-11.67,1.26,5.37,-3.72,0.59,0.66
2.123,-11.20,1.40,5.68,-3.72,0.59,0.66
2.124,-11.20,1.40,5.68,-3.67,0.58,0.70
2.126,-11.20,1.40,5.68,-3.62,0.57,0.74
2.127,-10.81,1.56,6.01,-3.62,0.57,0.74
2.128,-10.81,1.56,6.01,-3.57,0.56,0.77
2.13,-10.81,1.56,6.01,-3.52,0.55,0.81
2.13,-10.41,1.68,6.27,-3.52,0.55,0.81
2.131,-10.41,1.68,6.27,-3.47,0.55,0.84
2.134,-10.41,1.68,6.27,-3.42,0.55,0.87
2.134,-10.05,1.77,6.58,-3.42,0.55,0.87
2.135,-10.05,1.77,6.58,-3.36,0.56,0.90
2.138,-10.05,1.77,6.58,-3.30,0.56,0.93
2.139,-9.75,1.84,6.82,-3.30,0.56,0.93
2.14,-9.75,1.84,6.82,-3.25,0.57,0.96
2.142,-9.75,1.84,6.82,-3.19,0.58,0.99
2.142,-9.49,1.94,7.11,-3.19,0.58,0.99
2.144,-9.49,1.94,7.11,-3.13,0.59,1.02
2.146,-9.49,1.94,7.11,-3.06,0.59,1.05
2.146,-9.24,2.02,7.34,-3.06,0.59,1.05
2.147,-9.24,2.02,7.34,-2.99,0.60,1.09
2.15,-9.24,2.02,7.34,-2.91,0.62,1.12
2.15,-9.02,2.15,7.64,-2.91,0.62,1.12
2.152,-9.02,2.15,7.64,-2.83,0.64,1.15
2.154,-9.02,2.15,7.64,-2.74,0.67,1.19
2.154,-8.79,2.24,8.16,-2.74,0.67,1.19
2.156,-8.79,2.24,8.16,-2.64,0.70,1.22
2.159,-8.79,2.24,8.16,-2.53,0.73,1.26
2.159,-8.50,2.36,9.07,-2.53,0.73,1.26
2.159,-8.50,2.36,9.07,-2.42,0.77,1.29
2.162,-8.50,2.36,9.07,-2.30,0.82,1.32
2.162,-8.19,2.51,9.61,-2.30,0.82,1.32
2.163,-8.19,2.51,9.61,-2.16,0.87,1.36
2.166,-8.19,2.51,9.61,-2.02,0.92,1.38
2.167,-7.85,2.67,10.69,-2.02,0.92,1.38
2.167,-7.85,2.67,10.69,-1.88,0.96,1.42
2.17,-7.85,2.67,10.69,-1.75,1.01,1.45
2.17,-7.48,2.90,11.37,-1.75,1.01,1.45
2.171,-7.48,2.90,11.37,-1.61,1.05,1.47
2.174,-7.48,2.90,11.37,-1.48,1.10,1.50
2.174,-7.25,3.05,11.13,-1.48,1.10,1.50
2.175,-7.25,3.05,11.13,-1.35,1.14,1.53
2.178,-7.25,3.05,11.13,-1.22,1.18,1.57
2.178,-6.82,3.24,11.31,-1.22,1.18,1.57
2.179,-6.82,3.24,11.31,-1.09,1.21,1.60
2.182,-6.82,3.24,11.31,-0.96,1.25,1.62
2.182,-6.66,3.29,11.09,-0.96,1.25,1.62
2.183,-6.66,3.29,11.09,-0.83,1.29,1.64
2.186,-6.66,3.29,11.09,-0.69,1.34,1.66
2.186,-6.05,3.40,11.21,-0.69,1.34,1.66
2.187,-6.05,3.40,11.21,-0.56,1.38,1.68
2.19,-6.05,3.40,11.21,-0.42,1.44,1.68
2.19,-5.38,3.34,11.62,-0.42,1.44,1.68
2.191,-5.38,3.34,11.62,-0.27,1.49,1.67
2.194,-5.38,3.34,11.62,-0.13,1.56,1.63
2.194,-4.07,3.15,12.00,-0.13,1.56,1.63
2.195,-4.07,3.15,12.00,0.01,1.63,1.58
2.198,-4.07,3.15,12.00,0.15,1.71,1.50
2.198,-1.57,2.83,12.31,0.15,1.71,1.50
2.206,-1.57,2.83,12.31,0.30,1.80,1.41
2.207,-1.57,2.83,12.31,0.43,1.90,1.30
2.207,0.92,2.42,12.29,0.43,1.90,1.30
2.207,0.92,2.42,12.29,0.57,2.00,1.15
2.208,0.92,2.42,12.29,0.70,2.11,1.00
2.208,3.98,1.84,12.18,0.70,2.11,1.00
2.209,3.98,1.84,12.18,0.82,2.21,0.82
2.21,3.98,1.84,12.18,0.94,2.30,0.63
2.21,7.10,1.04,11.75,0.94,2.30,0.63
2.211,7.10,1.04,11.75,1.04,2.39,0.44
2.214,7.10,1.04,11.75,1.14,2.48,0.26
2.214,9.72,0.11,10.69,1.14,2.48,0.26
2.217,9.72,0.11,10.69,1.24,2.55,0.08
2.218,9.72,0.11,10.69,1.32,2.61,-0.07
2.218,10.78,-1.06,9.57,1.32,2.61,-0.07
2.219,10.78,-1.06,9.57,1.40,2.68,-0.20
2.222,10.78,-1.06,9.57,1.48,2.75,-0.30
2.222,10.51,-2.25,8.42,1.48,2.75,-0.30
2.223,10.51,-2.25,8.42,1.57,2.81,-0.37
2.226,10.51,-2.25,8.42,1.66,2.86,-0.41
2.226,8.78,-3.01,8.02,1.66,2.86,-0.41
2.227,8.78,-3.01,8.02,1.75,2.91,-0.42
2.229,8.78,-3.01,8.02,1.85,2.95,-0.40
2.23,6.32,-2.99,7.83,1.85,2.95,-0.40
2.231,6.32,-2.99,7.83,1.95,2.97,-0.35
2.234,6.32,-2.99,7.83,2.04,2.97,-0.28
2.234,3.25,-2.03,7.84,2.04,2.97,-0.28
2.235,3.25,-2.03,7.84,2.12,2.93,-0.19
2.238,3.25,-2.03,7.84,2.18,2.86,-0.09
2.238,0.43,-0.65,7.08,2.18,2.86,-0.09
2.239,0.43,-0.65,7.08,2.23,2.77,0.01
2.242,0.43,-0.65,7.08,2.26,2.66,0.11
2.242,-1.49,0.66,5.45,2.26,2.66,0.11
2.244,-1.49,0.66,5.45,2.26,2.53,0.21
2.245,-1.49,0.66,5.45,2.26,2.40,0.29
2.246,-2.32,1.62,3.81,2.26,2.40,0.29
2.247,-2.32,1.62,3.81,2.24,2.27,0.37
2.25,-2.32,1.62,3.81,2.21,2.16,0.44
2.25,-2.27,2.09,2.45,2.21,2.16,0.44
2.251,-2.27,2.09,2.45,2.17,2.06,0.49
2.254,-2.27,2.09,2.45,2.12,1.99,0.54
2.254,-1.90,2.24,1.54,2.12,1.99,0.54
2.255,-1.90,2.24,1.54,2.06,1.94,0.59
2.258,-1.90,2.24,1.54,1.99,1.90,0.63
2.258,-1.56,2.21,1.04,1.99,1.90,0.63
2.259,-1.56,2.21,1.04,1.92,1.90,0.67
2.262,-1.56,2.21,1.04,1.86,1.90,0.70
2.262,-1.39,2.07,0.71,1.86,1.90,0.70
2.263,-1.39,2.07,0.71,1.79,1.91,0.73
2.266,-1.39,2.07,0.71,1.73,1.94,0.76
2.267,-1.27,1.86,0.62,1.73,1.94,0.76
2.267,-1.27,1.86,0.62,1.67,1.98,0.79
2.27,-1.27,1.86,0.62,1.62,2.03,0.81
2.27,-1.19,1.62,0.76,1.62,2.03,0.81
2.271,-1.19,1.62,0.76,1.59,2.07,0.83
2.274,-1.19,1.62,0.76,1.56,2.12,0.85
2.274,-1.16,1.47,1.13,1.56,2.12,0.85
2.275,-1.16,1.47,1.13,1.54,2.15,0.87
2.278,-1.16,1.45,1.53,1.54,2.15,0.87
2.278,-1.16,1.45,1.53,1.52,2.19,0.89
2.279,-1.16,1.45,1.53,1.52,2.21,0.90
2.281,-1.18,1.45,1.84,1.52,2.21,0.90
2.282,-1.18,1.45,1.84,1.52,2.23,0.92
2.283,-1.18,1.45,1.84,1.53,2.25,0.93
2.285,-1.18,1.45,1.84,1.55,2.26,0.94
2.286,-1.24,1.35,2.01,1.55,2.26,0.94
2.288,-1.24,1.35,2.01,1.56,2.26,0.96
2.29,-1.24,1.35,2.01,1.58,2.26,0.98
2.292,-1.35,1.17,2.09,1.58,2.26,0.98
2.292,-1.35,1.17,2.09,1.60,2.25,1.00
2.294,-1.35,1.17,2.09,1.61,2.25,1.01
2.294,-1.50,0.93,1.98,1.61,2.25,1.01
2.295,-1.50,0.93,1.98,1.62,2.24,1.03
2.298,-1.50,0.93,1.98,1.63,2.23,1.04
2.298,-1.55,0.61,1.70,1.63,2.23,1.04
2.305,-1.55,0.61,1.70,1.63,2.22,1.05
2.306,-1.55,0.61,1.70,1.63,2.21,1.07
2.306,-1.56,0.29,1.23,1.63,2.21,1.07
2.307,-1.56,0.29,1.23,1.62,2.18,1.09
2.307,-1.56,0.29,1.23,1.60,2.15,1.10
2.307,-1.58,0.05,0.50,1.60,2.15,1.10
2.308,-1.58,0.05,0.50,1.58,2.13,1.12
2.31,-1.58,0.05,0.50,1.56,2.10,1.13
2.31,-1.47,-0.11,-0.47,1.56,2.10,1.13
2.311,-1.47,-0.11,-0.47,1.52,2.06,1.15
2.313,-1.47,-0.11,-0.47,1.48,2.02,1.16
2.314,-1.56,-0.15,-1.24,1.48,2.02,1.16
2.315,-1.56,-0.15,-1.24,1.43,1.96,1.18
2.318,-1.41,-0.30,-2.15,1.43,1.96,1.18
2.318,-1.41,-0.30,-2.15,1.37,1.89,1.19
2.319,-1.41,-0.30,-2.15,1.31,1.83,1.19
2.321,-1.41,-0.30,-2.15,1.24,1.76,1.19
2.322,-1.15,-0.52,-3.09,1.24,1.76,1.19
2.323,-1.15,-0.52,-3.09,1.17,1.69,1.19
2.325,-1.15,-0.52,-3.09,1.10,1.62,1.18
2.326,-0.81,-0.77,-3.79,1.10,1.62,1.18
2.327,-0.81,-0.77,-3.79,1.02,1.55,1.16
2.329,-0.81,-0.77,-3.79,0.94,1.48,1.14
2.33,-0.38,-1.12,-4.37,0.94,1.48,1.14
2.331,-0.38,-1.12,-4.37,0.87,1.41,1.11
2.333,-0.38,-1.12,-4.37,0.79,1.34,1.08
2.334,0.12,-1.36,-4.78,0.79,1.34,1.08
2.335,0.12,-1.36,-4.78,0.72,1.28,1.05
2.338,0.12,-1.36,-4.78,0.64,1.21,1.01
2.338,0.55,-1.49,-4.99,0.64,1.21,1.01
2.339,0.55,-1.49,-4.99,0.57,1.16,0.97
2.341,0.55,-1.49,-4.99,0.49,1.09,0.93
2.342,0.92,-1.45,-5.16,0.49,1.09,0.93
2.343,0.92,-1.45,-5.16,0.43,1.04,0.89
2.345,0.92,-1.45,-5.16,0.36,0.99,0.84
2.346,1.31,-1.27,-5.10,0.36,0.99,0.84
2.347,1.31,-1.27,-5.10,0.30,0.94,0.79
2.35,1.31,-1.27,-5.10,0.24,0.90,0.74
2.35,1.66,-1.01,-4.84,0.24,0.90,0.74
2.351,1.66,-1.01,-4.84,0.19,0.84,0.69
2.353,1.66,-1.01,-4.84,0.15,0.80,0.64
2.354,2.20,-0.71,-4.53,0.15,0.80,0.64
2.355,2.20,-0.71,-4.53,0.12,0.75,0.57
2.358,2.20,-0.71,-4.53,0.09,0.69,0.51
2.358,2.72,-0.43,-4.01,0.09,0.69,0.51
2.359,2.72,-0.43,-4.01,0.08,0.65,0.45
2.361,2.72,-0.43,-4.01,0.08,0.60,0.39
2.361,3.30,-0.15,-3.08,0.08,0.60,0.39
2.363,3.30,-0.15,-3.08,0.08,0.55,0.32
2.365,3.30,-0.15,-3.08,0.10,0.49,0.25
2.365,3.79,0.12,-2.08,0.10,0.49,0.25
2.367,3.79,0.12,-2.08,0.12,0.42,0.17
2.369,3.79,0.12,-2.08,0.16,0.36,0.11
2.37,4.24,0.35,-1.13,0.16,0.36,0.11
2.371,4.24,0.35,-1.13,0.21,0.29,0.04
2.373,4.24,0.35,-1.13,0.25,0.22,-0.02
2.374,4.56,0.55,-0.10,0.25,0.22,-0.02
2.375,4.56,0.55,-0.10,0.31,0.15,-0.08
2.377,4.56,0.55,-0.10,0.37,0.08,-0.14
2.377,4.50,0.83,0.63,0.37,0.08,-0.14
2.379,4.50,0.83,0.63,0.42,0.01,-0.18
2.381,4.50,0.83,0.63,0.48,-0.07,-0.23
2.381,4.33,1.20,1.32,0.48,-0.07,-0.23
2.383,4.33,1.20,1.32,0.53,-0.14,-0.27
2.385,4.33,1.20,1.32,0.59,-0.21,-0.29
2.385,4.08,1.52,1.66,0.59,-0.21,-0.29
2.387,4.08,1.52,1.66,0.63,-0.29,-0.32
2.389,4.08,1.52,1.66,0.68,-0.36,-0.33
2.39,3.86,1.56,1.72,0.68,-0.36,-0.33
2.391,3.86,1.56,1.72,0.72,-0.44,-0.34
2.393,3.86,1.56,1.72,0.76,-0.52,-0.34
2.393,3.40,1.56,1.70,0.76,-0.52,-0.34
2.395,3.40,1.56,1.70,0.79,-0.60,-0.34
2.397,3.40,1.56,1.70,0.82,-0.70,-0.32
2.398,2.97,1.73,1.67,0.82,-0.70,-0.32
2.406,2.97,1.73,1.67,0.85,-0.80,-0.31
2.407,2.97,1.73,1.67,0.87,-0.90,-0.29
2.407,2.64,1.97,1.34,0.87,-0.90,-0.29
2.408,2.64,1.97,1.34,0.89,-1.02,-0.28
2.408,2.64,1.97,1.34,0.90,-1.14,-0.25
2.408,2.50,2.32,0.95,0.90,-1.14,-0.25
2.409,2.50,2.32,0.95,0.91,-1.26,-0.23
2.409,2.50,2.32,0.95,0.91,-1.39,-0.21
2.409,2.36,2.59,0.60,0.91,-1.39,-0.21
2.411,2.36,2.59,0.60,0.91,-1.52,-0.19
2.413,2.36,2.59,0.60,0.90,-1.65,-0.18
2.414,2.37,2.83,0.14,0.90,-1.65,-0.18
2.415,2.37,2.83,0.14,0.89,-1.78,-0.17
2.418,2.62,3.07,-0.43,0.89,-1.78,-0.17
2.419,2.62,3.07,-0.43,0.87,-1.91,-0.16
2.419,2.62,3.07,-0.43,0.85,-2.04,-0.16
2.421,2.62,3.07,-0.43,0.83,-2.16,-0.16
2.422,3.01,3.25,-0.85,0.83,-2.16,-0.16
2.424,3.01,3.25,-0.85,0.80,-2.28,-0.18
2.425,3.01,3.25,-0.85,0.77,-2.40,-0.20
2.425,3.60,3.46,-1.38,0.77,-2.40,-0.20
2.427,3.60,3.46,-1.38,0.73,-2.53,-0.24
2.429,3.60,3.46,-1.38,0.70,-2.65,-0.29
2.429,4.29,3.70,-1.66,0.70,-2.65,-0.29
2.431,4.29,3.70,-1.66,0.66,-2.77,-0.36
2.433,4.29,3.70,-1.66,0.63,-2.88,-0.43
2.433,5.05,3.86,-1.85,0.63,-2.88,-0.43
2.435,5.05,3.86,-1.85,0.59,-3.00,-0.51
2.437,5.05,3.86,-1.85,0.55,-3.11,-0.61
2.438,5.72,3.82,-1.83,0.55,-3.11,-0.61
2.439,5.72,3.82,-1.83,0.50,-3.21,-0.72
2.441,5.72,3.82,-1.83,0.46,-3.30,-0.83
2.441,6.42,3.78,-1.85,0.46,-3.30,-0.83
2.443,6.42,3.78,-1.85,0.43,-3.40,-0.95
2.445,6.42,3.78,-1.85,0.39,-3.48,-1.09
2.445,6.85,3.70,-1.67,0.39,-3.48,-1.09
2.446,6.85,3.70,-1.67,0.37,-3.55,-1.23
2.45,6.85,3.70,-1.67,0.34,-3.60,-1.37
2.45,7.30,3.37,-0.97,0.34,-3.60,-1.37
2.45,7.30,3.37,-0.97,0.30,-3.63,-1.52
2.453,7.30,3.37,-0.97,0.26,-3.63,-1.67
2.453,7.43,3.21,-0.51,0.26,-3.63,-1.67
2.455,7.43,3.21,-0.51,0.21,-3.60,-1.82
2.457,7.43,3.21,-0.51,0.18,-3.51,-1.98
2.458,7.64,3.15,-0.35,0.18,-3.51,-1.98
2.459,7.64,3.15,-0.35,0.15,-3.37,-2.14
2.461,7.64,3.15,-0.35,0.12,-3.21,-2.29
2.461,7.80,2.91,0.94,0.12,-3.21,-2.29
2.462,7.80,2.91,0.94,0.08,-3.04,-2.45
2.465,7.80,2.91,0.94,0.03,-2.86,-2.60
2.465,7.73,1.70,2.32,0.03,-2.86,-2.60
2.467,7.73,1.70,2.32,-0.02,-2.66,-2.75
2.469,7.73,1.70,2.32,-0.06,-2.43,-2.90
2.469,7.75,0.37,1.72,-0.06,-2.43,-2.90
2.471,7.75,0.37,1.72,-0.10,-2.19,-3.05
2.473,7.75,0.37,1.72,-0.14,-1.95,-3.20
2.473,7.24,-0.60,1.87,-0.14,-1.95,-3.20
2.474,7.24,-0.60,1.87,-0.17,-1.70,-3.35
2.477,7.24,-0.60,1.87,-0.19,-1.47,-3.50
2.477,6.92,-1.41,2.02,-0.19,-1.47,-3.50
2.478,6.92,-1.41,2.02,-0.21,-1.26,-3.65
2.481,6.92,-1.41,2.02,-0.23,-1.06,-3.79
2.481,6.55,-1.89,1.56,-0.23,-1.06,-3.79
2.483,6.55,-1.89,1.56,-0.24,-0.84,-3.93
2.485,6.55,-1.89,1.56,-0.26,-0.52,-4.05
2.485,5.99,-2.33,1.14,-0.26,-0.52,-4.05
2.487,5.99,-2.33,1.14,-0.28,-0.19,-4.15
2.489,5.99,-2.33,1.14,-0.30,0.10,-4.26
2.49,5.86,-1.87,-0.03,-0.30,0.10,-4.26
2.49,5.86,-1.87,-0.03,-0.33,0.36,-4.35
2.493,5.86,-1.87,-0.03,-0.36,0.57,-4.44
2.493,4.91,-2.10,-0.77,-0.36,0.57,-4.44
2.494,4.91,-2.10,-0.77,-0.40,0.76,-4.52
2.497,4.91,-2.10,-0.77,-0.43,0.90,-4.60
2.497,3.91,-2.74,-1.33,-0.43,0.90,-4.60
2.498,3.91,-2.74,-1.33,-0.46,1.01,-4.68
2.507,3.91,-2.74,-1.33,-0.48,1.10,-4.75
2.507,3.33,-3.46,-1.37,-0.48,1.10,-4.75
2.508,3.33,-3.46,-1.37,-0.50,1.19,-4.82
2.508,3.33,-3.46,-1.37,-0.51,1.27,-4.86
2.508,2.67,-4.41,-0.79,-0.51,1.27,-4.86
2.509,2.67,-4.41,-0.79,-0.52,1.34,-4.88
2.509,2.67,-4.41,-0.79,-0.52,1.42,-4.89
2.51,1.59,-5.50,-0.32,-0.52,1.42,-4.89
2.511,1.59,-5.50,-0.32,-0.52,1.49,-4.89
2.513,1.59,-5.50,-0.32,-0.49,1.57,-4.87
2.514,0.16,-6.50,-0.03,-0.49,1.57,-4.87
2.514,0.16,-6.50,-0.03,-0.47,1.63,-4.84
2.519,0.16,-6.50,-0.03,-0.43,1.70,-4.80
2.52,-0.19,-6.90,0.27,-0.43,1.70,-4.80
2.52,-0.19,-6.90,0.27,-0.40,1.76,-4.75
2.521,-0.19,-6.90,0.27,-0.37,1.82,-4.70
2.521,-1.15,-7.27,0.41,-0.37,1.82,-4.70
2.522,-1.15,-7.27,0.41,-0.32,1.85,-4.65
2.525,-1.15,-7.27,0.41,-0.26,1.85,-4.57
2.525,-1.47,-7.10,-0.02,-0.26,1.85,-4.57
2.526,-1.47,-7.10,-0.02,-0.20,1.83,-4.50
2.529,-1.47,-7.10,-0.02,-0.13,1.79,-4.42
2.529,-2.42,-7.22,0.32,-0.13,1.79,-4.42
2.53,-2.42,-7.22,0.32,-0.06,1.72,-4.35
2.533,-2.42,-7.22,0.32,0.01,1.62,-4.26
2.534,-2.85,-7.01,-0.25,0.01,1.62,-4.26
2.534,-2.85,-7.01,-0.25,0.09,1.47,-4.18
2.537,-2.85,-7.01,-0.25,0.16,1.29,-4.09
2.537,-3.30,-6.72,-0.53,0.16,1.29,-4.09
2.538,-3.30,-6.72,-0.53,0.23,1.09,-4.00
2.541,-3.30,-6.72,-0.53,0.31,0.85,-3.92
2.541,-4.03,-6.11,-0.87,0.31,0.85,-3.92
2.542,-4.03,-6.11,-0.87,0.38,0.58,-3.85
2.544,-4.03,-6.11,-0.87,0.44,0.27,-3.78
2.544,-4.08,-5.08,-1.41,0.44,0.27,-3.78
2.546,-4.08,-5.08,-1.41,0.50,-0.06,-3.74
2.548,-4.08,-5.08,-1.41,0.55,-0.40,-3.72
2.548,-3.22,-3.93,-2.53,0.55,-0.40,-3.72
2.55,-3.22,-3.93,-2.53,0.59,-0.75,-3.70
2.552,-3.22,-3.93,-2.53,0.64,-1.11,-3.69
2.552,-1.44,-2.35,-3.53,0.64,-1.11,-3.69
2.554,-1.44,-2.35,-3.53,0.67,-1.45,-3.69
2.557,-1.44,-2.35,-3.53,0.69,-1.78,-3.67
2.557,-0.10,-1.24,-4.14,0.69,-1.78,-3.67
2.558,-0.10,-1.24,-4.14,0.71,-2.09,-3.63
2.56,-0.10,-1.24,-4.14,0.72,-2.39,-3.59
2.56,0.02,-0.91,-4.36,0.72,-2.39,-3.59
2.562,0.02,-0.91,-4.36,0.72,-2.64,-3.53
2.564,0.02,-0.91,-4.36,0.71,-2.86,-3.46
2.564,-0.33,-0.87,-4.17,0.71,-2.86,-3.46
2.566,-0.33,-0.87,-4.17,0.70,-3.03,-3.39
2.568,-0.33,-0.87,-4.17,0.70,-3.15,-3.29
2.568,-0.74,-0.72,-3.60,0.70,-3.15,-3.29
2.57,-0.74,-0.72,-3.60,0.71,-3.18,-3.19
2.573,-0.74,-0.72,-3.60,0.74,-3.13,-3.07
2.573,-1.31,-0.44,-1.92,0.74,-3.13,-3.07
2.574,-1.31,-0.44,-1.92,0.78,-2.97,-2.95
2.576,-1.31,-0.44,-1.92,0.83,-2.72,-2.81
2.577,-2.10,-0.13,1.38,0.83,-2.72,-2.81
2.578,-2.10,-0.13,1.38,0.87,-2.36,-2.65
2.58,-2.10,-0.13,1.38,0.89,-1.95,-2.50
2.581,-3.05,-0.37,4.64,0.89,-1.95,-2.50
2.589,-3.05,-0.37,4.64,0.91,-1.52,-2.34
2.59,-3.05,-0.37,4.64,0.90,-1.07,-2.18
2.591,-3.52,-0.56,5.94,0.90,-1.07,-2.18
2.591,-3.52,-0.56,5.94,0.89,-0.62,-2.02
2.591,-3.52,-0.56,5.94,0.86,-0.19,-1.86
2.592,-3.50,-0.51,5.48,0.86,-0.19,-1.86
2.592,-3.50,-0.51,5.48,0.82,0.20,-1.73
2.592,-3.50,-0.51,5.48,0.78,0.56,-1.60
2.593,-3.19,-0.24,4.32,0.78,0.56,-1.60
2.594,-3.19,-0.24,4.32,0.73,0.89,-1.48
2.596,-3.19,-0.24,4.32,0.68,1.18,-1.37
2.597,-2.54,0.29,2.76,0.68,1.18,-1.37
2.598,-2.54,0.29,2.76,0.63,1.42,-1.27
2.6,-2.54,0.29,2.76,0.58,1.60,-1.16
2.601,-1.84,0.84,1.56,0.58,1.60,-1.16
2.602,-1.84,0.84,1.56,0.54,1.75,-1.05
2.604,-1.84,0.84,1.56,0.48,1.88,-0.96
2.605,-1.55,1.26,0.49,0.48,1.88,-0.96
2.606,-1.55,1.26,0.49,0.40,2.01,-0.88
2.608,-1.55,1.26,0.49,0.31,2.16,-0.81
2.609,-1.14,1.63,-0.59,0.31,2.16,-0.81
2.61,-1.14,1.63,-0.59,0.19,2.33,-0.77
2.612,-1.14,1.63,-0.59,0.05,2.48,-0.74
2.612,-0.25,2.44,-1.70,0.05,2.48,-0.74
2.614,-0.25,2.44,-1.70,-0.10,2.62,-0.73
2.616,-0.25,2.44,-1.70,-0.25,2.72,-0.74
2.617,0.75,3.18,-2.75,-0.25,2.72,-0.74
2.618,0.75,3.18,-2.75,-0.39,2.77,-0.75
2.62,0.75,3.18,-2.75,-0.51,2.78,-0.76
2.62,1.49,3.59,-3.34,-0.51,2.78,-0.76
2.622,1.49,3.59,-3.34,-0.62,2.75,-0.78
2.624,1.49,3.59,-3.34,-0.71,2.69,-0.81
2.625,2.07,3.88,-3.09,-0.71,2.69,-0.81
2.626,2.07,3.88,-3.09,-0.80,2.59,-0.83
2.628,2.07,3.88,-3.09,-0.87,2.47,-0.85
2.628,2.60,4.08,-2.57,-0.87,2.47,-0.85
2.63,2.60,4.08,-2.57,-0.92,2.33,-0.88
2.633,2.60,4.08,-2.57,-0.97,2.17,-0.90
2.633,2.69,4.22,-1.92,-0.97,2.17,-0.90
2.634,2.69,4.22,-1.92,-1.01,1.99,-0.92
2.636,2.69,4.22,-1.92,-1.04,1.79,-0.93
2.636,2.70,4.23,-1.24,-1.04,1.79,-0.93
2.638,2.70,4.23,-1.24,-1.06,1.59,-0.96
2.64,2.70,4.23,-1.24,-1.08,1.38,-0.97
2.641,2.72,4.22,-0.47,-1.08,1.38,-0.97
2.642,2.72,4.22,-0.47,-1.09,1.17,-0.99
2.644,2.72,4.22,-0.47,-1.10,0.96,-1.01
2.644,2.68,4.21,-0.15,-1.10,0.96,-1.01
2.646,2.68,4.21,-0.15,-1.11,0.76,-1.03
2.648,2.68,4.21,-0.15,-1.12,0.57,-1.06
2.648,2.71,4.35,-0.29,-1.12,0.57,-1.06
2.65,2.71,4.35,-0.29,-1.13,0.39,-1.08
2.652,2.71,4.35,-0.29,-1.13,0.23,-1.11
2.652,2.78,4.46,-0.38,-1.13,0.23,-1.11
2.654,2.78,4.46,-0.38,-1.13,0.08,-1.14
2.657,2.78,4.46,-0.38,-1.14,-0.04,-1.17
2.657,2.86,4.56,-0.65,-1.14,-0.04,-1.17
2.658,2.86,4.56,-0.65,-1.14,-0.16,-1.21
2.66,2.86,4.56,-0.65,-1.14,-0.25,-1.25
2.66,2.75,4.59,-0.66,-1.14,-0.25,-1.25
2.662,2.75,4.59,-0.66,-1.14,-0.33,-1.29
2.664,2.75,4.59,-0.66,-1.14,-0.40,-1.33
2.664,2.91,4.77,-1.00,-1.14,-0.40,-1.33
2.666,2.91,4.77,-1.00,-1.14,-0.46,-1.37
2.668,2.91,4.77,-1.00,-1.14,-0.50,-1.41
2.668,2.91,4.83,-1.22,-1.14,-0.50,-1.41
2.67,2.91,4.83,-1.22,-1.14,-0.53,-1.46
2.672,2.91,4.83,-1.22,-1.13,-0.56,-1.50
2.673,2.94,4.89,-1.59,-1.13,-0.56,-1.50
2.674,2.94,4.89,-1.59,-1.12,-0.58,-1.55
2.676,2.94,4.89,-1.59,-1.10,-0.59,-1.59
2.676,2.98,4.94,-1.67,-1.10,-0.59,-1.59
2.678,2.98,4.94,-1.67,-1.08,-0.60,-1.63
2.68,2.98,4.94,-1.67,-1.06,-0.60,-1.67
2.68,2.73,4.86,-1.74,-1.06,-0.60,-1.67
2.682,2.73,4.86,-1.74,-1.04,-0.60,-1.71
2.684,2.73,4.86,-1.74,-1.00,-0.62,-1.74
2.684,2.76,4.83,-1.81,-1.00,-0.62,-1.74
2.686,2.76,4.83,-1.81,-0.96,-0.66,-1.77
2.688,2.76,4.83,-1.81,-0.93,-0.69,-1.79
2.691,2.42,4.44,-1.70,-0.93,-0.69,-1.79
2.692,2.42,4.44,-1.70,-0.90,-0.72,-1.81
2.692,2.42,4.44,-1.70,-0.88,-0.77,-1.83
2.692,1.58,2.79,-1.70,-0.88,-0.77,-1.83
2.694,1.58,2.79,-1.70,-0.85,-0.82,-1.84
2.696,1.58,2.79,-1.70,-0.83,-0.87,-1.84
2.696,0.48,0.61,-2.31,-0.83,-0.87,-1.84
2.698,0.48,0.61,-2.31,-0.81,-0.94,-1.85
2.706,0.48,0.61,-2.31,-0.80,-1.01,-1.85
2.707,-0.62,-1.62,-2.64,-0.80,-1.01,-1.85
2.707,-0.62,-1.62,-2.64,-0.78,-1.08,-1.86
2.707,-0.62,-1.62,-2.64,-0.76,-1.15,-1.87
2.708,-1.37,-3.88,-3.01,-0.76,-1.15,-1.87
2.708,-1.37,-3.88,-3.01,-0.73,-1.22,-1.89
2.708,-1.37,-3.88,-3.01,-0.70,-1.29,-1.92
2.709,-1.69,-6.14,-2.48,-0.70,-1.29,-1.92
2.71,-1.69,-6.14,-2.48,-0.67,-1.37,-1.95
2.712,-1.69,-6.14,-2.48,-0.65,-1.44,-1.98
2.713,-1.47,-8.40,-1.72,-0.65,-1.44,-1.98
2.714,-1.47,-8.40,-1.72,-0.63,-1.53,-2.01
2.718,-1.47,-8.40,-1.72,-0.62,-1.61,-2.05
2.718,-1.49,-10.78,-1.66,-0.62,-1.61,-2.05
2.719,-1.49,-10.78,-1.66,-0.61,-1.69,-2.07
2.72,-1.49,-10.78,-1.66,-0.61,-1.76,-2.10
2.72,-1.66,-13.09,-1.63,-0.61,-1.76,-2.10
2.722,-1.66,-13.09,-1.63,-0.62,-1.83,-2.12
2.724,-1.66,-13.09,-1.63,-0.64,-1.89,-2.13
2.724,-1.94,-15.06,-1.57,-0.64,-1.89,-2.13
2.726,-1.94,-15.06,-1.57,-0.67,-1.94,-2.13
2.728,-1.94,-15.06,-1.57,-0.70,-2.00,-2.11
2.728,-2.47,-16.82,-1.60,-0.70,-2.00,-2.11
2.73,-2.47,-16.82,-1.60,-0.75,-2.04,-2.09
2.732,-2.47,-16.82,-1.60,-0.80,-2.08,-2.05
2.732,-3.08,-18.25,-1.66,-0.80,-2.08,-2.05
2.734,-3.08,-18.25,-1.66,-0.86,-2.12,-2.00
2.736,-3.08,-18.25,-1.66,-0.91,-2.14,-1.92
2.736,-3.67,-19.17,-1.71,-0.91,-2.14,-1.92
2.738,-3.67,-19.17,-1.71,-0.98,-2.16,-1.84
2.74,-3.67,-19.17,-1.71,-1.04,-2.17,-1.74
2.74,-4.44,-19.43,-1.72,-1.04,-2.17,-1.74
2.742,-4.44,-19.43,-1.72,-1.10,-2.17,-1.63
2.744,-4.44,-19.43,-1.72,-1.15,-2.17,-1.51
2.744,-4.99,-19.22,-1.50,-1.15,-2.17,-1.51
2.745,-4.99,-19.22,-1.50,-1.20,-2.15,-1.38
2.748,-4.99,-19.22,-1.50,-1.24,-2.13,-1.24
2.748,-5.28,-18.61,-1.13,-1.24,-2.13,-1.24
2.75,-5.28,-18.61,-1.13,-1.28,-2.09,-1.10
2.752,-5.28,-18.61,-1.13,-1.30,-2.05,-0.96
2.752,-5.29,-17.39,-0.61,-1.30,-2.05,-0.96
2.754,-5.29,-17.39,-0.61,-1.30,-2.00,-0.83
2.756,-5.29,-17.39,-0.61,-1.30,-1.95,-0.70
2.757,-4.96,-15.37,0.08,-1.30,-1.95,-0.70
2.758,-4.96,-15.37,0.08,-1.28,-1.89,-0.59
2.76,-4.96,-15.37,0.08,-1.25,-1.83,-0.49
2.76,-3.97,-12.60,0.99,-1.25,-1.83,-0.49
2.761,-3.97,-12.60,0.99,-1.20,-1.76,-0.40
2.764,-3.97,-12.60,0.99,-1.14,-1.69,-0.32
2.764,-2.88,-9.49,1.92,-1.14,-1.69,-0.32
2.766,-2.88,-9.49,1.92,-1.06,-1.62,-0.25
2.768,-2.88,-9.49,1.92,-0.98,-1.54,-0.19
2.768,-1.90,-6.74,2.84,-0.98,-1.54,-0.19
2.769,-1.90,-6.74,2.84,-0.89,-1.46,-0.14
2.772,-1.90,-6.74,2.84,-0.79,-1.38,-0.10
2.772,-0.98,-4.40,3.57,-0.79,-1.38,-0.10
2.773,-0.98,-4.40,3.57,-0.69,-1.29,-0.07
2.776,-0.98,-4.40,3.57,-0.58,-1.20,-0.04
2.776,-0.16,-2.44,4.15,-0.58,-1.20,-0.04
2.778,-0.16,-2.44,4.15,-0.46,-1.10,-0.02
2.78,-0.16,-2.44,4.15,-0.35,-1.01,-0.01
2.78,0.55,-0.86,4.48,-0.35,-1.01,-0.01
2.781,0.55,-0.86,4.48,-0.23,-0.91,0.01
2.784,0.55,-0.86,4.48,-0.12,-0.81,0.02
2.784,1.11,0.38,4.58,-0.12,-0.81,0.02
2.785,1.11,0.38,4.58,-0.01,-0.72,0.02
2.788,1.11,0.38,4.58,0.09,-0.62,0.02
2.788,1.61,1.33,4.44,0.09,-0.62,0.02
2.79,1.61,1.33,4.44,0.19,-0.53,0.02
2.792,1.61,1.33,4.44,0.28,-0.44,0.01
2.792,2.01,2.02,4.06,0.28,-0.44,0.01
2.793,2.01,2.02,4.06,0.37,-0.36,0.01
2.796,2.01,2.02,4.06,0.44,-0.28,-0.00
2.796,2.27,2.49,3.56,0.44,-0.28,-0.00
2.797,2.27,2.49,3.56,0.50,-0.20,-0.01
2.806,2.27,2.49,3.56,0.56,-0.13,-0.03
2.807,2.48,2.77,2.93,0.56,-0.13,-0.03
2.808,2.48,2.77,2.93,0.60,-0.07,-0.03
2.808,2.48,2.77,2.93,0.64,-0.01,-0.05
2.808,2.64,2.93,2.23,0.64,-0.01,-0.05
2.809,2.64,2.93,2.23,0.67,0.05,-0.06
2.809,2.64,2.93,2.23,0.69,0.09,-0.06
2.809,2.60,2.95,1.57,0.69,0.09,-0.06
2.81,2.60,2.95,1.57,0.70,0.13,-0.07
2.812,2.60,2.95,1.57,0.71,0.17,-0.07
2.813,2.53,2.87,0.91,0.71,0.17,-0.07
2.814,2.53,2.87,0.91,0.70,0.20,-0.08
2.82,2.53,2.87,0.91,0.70,0.22,-0.08
2.821,2.43,2.76,0.34,0.70,0.22,-0.08
2.821,2.43,2.76,0.34,0.68,0.25,-0.08
2.821,2.43,2.76,0.34,0.66,0.27,-0.07
2.822,2.27,2.54,-0.20,0.66,0.27,-0.07
2.825,2.27,2.54,-0.20,0.64,0.29,-0.07
2.826,2.27,2.54,-0.20,0.61,0.31,-0.06
2.826,2.12,2.23,-0.65,0.61,0.31,-0.06
2.826,2.12,2.23,-0.65,0.57,0.32,-0.05
2.828,2.12,2.23,-0.65,0.54,0.34,-0.03
2.829,1.83,1.75,-1.09,0.54,0.34,-0.03
2.829,1.83,1.75,-1.09,0.49,0.36,-0.02
2.832,1.83,1.75,-1.09,0.45,0.37,-0.00
2.832,1.57,1.24,-1.41,0.45,0.37,-0.00
2.833,1.57,1.24,-1.41,0.41,0.38,0.01
2.835,1.57,1.24,-1.41,0.37,0.38,0.02
2.836,1.25,0.64,-1.67,0.37,0.38,0.02
2.837,1.25,0.64,-1.67,0.33,0.39,0.03
2.84,1.25,0.64,-1.67,0.29,0.38,0.04
2.84,1.01,0.02,-1.83,0.29,0.38,0.04
2.841,1.01,0.02,-1.83,0.25,0.38,0.04
2.844,1.01,0.02,-1.83,0.22,0.37,0.05
2.844,0.86,-0.41,-1.89,0.22,0.37,0.05
2.845,0.86,-0.41,-1.89,0.19,0.36,0.05
2.847,0.86,-0.41,-1.89,0.16,0.34,0.04
2.848,0.77,-0.68,-1.88,0.16,0.34,0.04
2.85,0.77,-0.68,-1.88,0.13,0.32,0.04
2.851,0.77,-0.68,-1.88,0.11,0.30,0.03
2.852,0.71,-0.80,-1.83,0.11,0.30,0.03
2.853,0.71,-0.80,-1.83,0.09,0.28,0.02
2.856,0.71,-0.80,-1.83,0.07,0.26,0.02
2.857,0.69,-0.77,-1.74,0.07,0.26,0.02
2.857,0.69,-0.77,-1.74,0.06,0.24,0.01
2.86,0.69,-0.77,-1.74,0.04,0.22,-0.00
2.86,0.66,-0.70,-1.60,0.04,0.22,-0.00
2.861,0.66,-0.70,-1.60,0.03,0.19,-0.01
2.864,0.66,-0.70,-1.60,0.02,0.18,-0.02
2.864,0.56,-0.60,-1.45,0.02,0.18,-0.02
2.865,0.56,-0.60,-1.45,0.01,0.16,-0.03
2.867,0.56,-0.60,-1.45,0.00,0.14,-0.03
2.868,0.43,-0.52,-1.29,0.00,0.14,-0.03
2.869,0.43,-0.52,-1.29,-0.00,0.14,-0.04
2.872,0.43,-0.52,-1.29,-0.01,0.13,-0.04
2.872,0.32,-0.44,-1.08,-0.01,0.13,-0.04
2.873,0.32,-0.44,-1.08,-0.01,0.12,-0.04
2.875,0.32,-0.44,-1.08,-0.01,0.12,-0.04
2.876,0.19,-0.35,-0.87,-0.01,0.12,-0.04
2.877,0.19,-0.35,-0.87,-0.01,0.12,-0.04
2.879,0.19,-0.35,-0.87,-0.01,0.11,-0.04
2.879,0.08,-0.26,-0.68,-0.01,0.11,-0.04
2.881,0.08,-0.26,-0.68,-0.01,0.12,-0.04
2.889,0.08,-0.26,-0.68,-0.01,0.12,-0.03
2.89,0.00,-0.18,-0.50,-0.01,0.12,-0.03
2.89,0.00,-0.18,-0.50,-0.00,0.13,-0.03
2.89,0.00,-0.18,-0.50,0.00,0.13,-0.02
2.891,-0.08,-0.10,-0.34,0.00,0.13,-0.02
2.891,-0.08,-0.10,-0.34,0.01,0.13,-0.02
2.891,-0.08,-0.10,-0.34,0.02,0.14,-0.01
2.892,-0.14,-0.07,-0.21,0.02,0.14,-0.01
2.893,-0.14,-0.07,-0.21,0.03,0.14,-0.00
2.895,-0.14,-0.07,-0.21,0.03,0.15,0.00
2.896,-0.17,-0.06,-0.09,0.03,0.15,0.00
2.897,-0.17,-0.06,-0.09,0.04,0.16,0.01
2.901,-0.17,-0.06,-0.09,0.05,0.16,0.02
2.901,-0.16,-0.05,0.01,0.05,0.16,0.02
2.902,-0.16,-0.05,0.01,0.06,0.17,0.02
2.903,-0.16,-0.05,0.01,0.07,0.17,0.03
2.904,-0.13,-0.06,0.04,0.07,0.17,0.03
2.905,-0.13,-0.06,0.04,0.08,0.18,0.03
2.907,-0.13,-0.06,0.04,0.09,0.18,0.03
2.908,-0.07,-0.09,0.04,0.09,0.18,0.03
2.909,-0.07,-0.09,0.04,0.09,0.18,0.03
2.911,-0.07,-0.09,0.04,0.10,0.19,0.03
2.911,-0.02,-0.10,0.02,0.10,0.19,0.03
2.913,-0.02,-0.10,0.02,0.11,0.20,0.02
2.915,-0.02,-0.10,0.02,0.11,0.20,0.02
2.916,0.04,-0.12,-0.01,0.11,0.20,0.02
2.917,0.04,-0.12,-0.01,0.11,0.21,0.02
2.919,0.04,-0.12,-0.01,0.11,0.21,0.02
2.919,0.04,-0.09,-0.10,0.11,0.21,0.02
2.921,0.04,-0.09,-0.10,0.11,0.22,0.01
2.923,0.04,-0.09,-0.10,0.11,0.22,0.01
2.924,0.02,-0.05,-0.18,0.11,0.22,0.01
2.925,0.02,-0.05,-0.18,0.11,0.23,0.00
2.927,0.02,-0.05,-0.18,0.11,0.23,0.00
2.927,-0.05,-0.02,-0.27,0.11,0.23,0.00
2.929,-0.05,-0.02,-0.27,0.10,0.23,0.00
2.931,-0.05,-0.02,-0.27,0.09,0.23,0.00
2.932,-0.14,0.01,-0.38,0.09,0.23,0.00
2.933,-0.14,0.01,-0.38,0.09,0.23,0.00
2.936,-0.14,0.01,-0.38,0.08,0.24,0.00
2.936,-0.23,0.02,-0.48,0.08,0.24,0.00
2.937,-0.23,0.02,-0.48,0.07,0.24,0.01
2.94,-0.23,0.02,-0.48,0.06,0.23,0.01
2.94,-0.30,0.00,-0.58,0.06,0.23,0.01
2.941,-0.30,0.00,-0.58,0.05,0.23,0.02
2.943,-0.30,0.00,-0.58,0.05,0.22,0.02
2.943,-0.37,-0.02,-0.66,0.05,0.22,0.02
2.945,-0.37,-0.02,-0.66,0.04,0.22,0.02
2.947,-0.37,-0.02,-0.66,0.03,0.21,0.02
2.947,-0.38,-0.03,-0.70,0.03,0.21,0.02
2.95,-0.38,-0.03,-0.70,0.02,0.21,0.03
2.951,-0.38,-0.03,-0.70,0.02,0.20,0.03
2.951,-0.37,-0.03,-0.72,0.02,0.20,0.03
2.953,-0.37,-0.03,-0.72,0.01,0.19,0.03
2.956,-0.37,-0.03,-0.72,0.00,0.18,0.04
2.956,-0.33,-0.05,-0.73,0.00,0.18,0.04
2.957,-0.33,-0.05,-0.73,-0.01,0.17,0.03
2.959,-0.33,-0.05,-0.73,-0.01,0.16,0.03
2.959,-0.27,-0.04,-0.72,-0.01,0.16,0.03
2.961,-0.27,-0.04,-0.72,-0.02,0.16,0.03
2.963,-0.27,-0.04,-0.72,-0.02,0.15,0.03
2.963,-0.19,-0.05,-0.70,-0.02,0.15,0.03
2.965,-0.19,-0.05,-0.70,-0.03,0.14,0.03
2.967,-0.19,-0.05,-0.70,-0.04,0.13,0.03
2.967,-0.13,-0.06,-0.68,-0.04,0.13,0.03
2.969,-0.13,-0.06,-0.68,-0.04,0.12,0.03
2.971,-0.13,-0.06,-0.68,-0.05,0.11,0.03
2.972,-0.07,-0.06,-0.63,-0.05,0.11,0.03
2.973,-0.07,-0.06,-0.63,-0.06,0.10,0.03
2.975,-0.07,-0.06,-0.63,-0.06,0.09,0.03
2.976,-0.02,-0.08,-0.60,-0.06,0.09,0.03
2.977,-0.02,-0.08,-0.60,-0.07,0.08,0.03
2.979,-0.02,-0.08,-0.60,-0.07,0.07,0.03
2.979,0.01,-0.10,-0.53,-0.07,0.07,0.03
2.981,0.01,-0.10,-0.53,-0.08,0.07,0.03
2.989,0.01,-0.10,-0.53,-0.08,0.06,0.03
2.99,0.06,-0.12,-0.45,-0.08,0.06,0.03
2.99,0.06,-0.12,-0.45,-0.08,0.05,0.03
2.99,0.06,-0.12,-0.45,-0.08,0.04,0.03
2.991,0.09,-0.13,-0.38,-0.08,0.04,0.03
2.991,0.09,-0.13,-0.38,-0.08,0.03,0.03
2.991,0.09,-0.13,-0.38,-0.08,0.03,0.03
2.992,0.13,-0.17,-0.32,-0.08,0.03,0.03
2.993,0.13,-0.17,-0.32,-0.08,0.02,0.03
2.995,0.13,-0.17,-0.32,-0.08,0.02,0.03
2.996,0.14,-0.18,-0.25,-0.08,0.02,0.03
2.997,0.14,-0.18,-0.25,-0.08,0.01,0.03
3.001,0.14,-0.18,-0.25,-0.07,0.01,0.03
3.002,0.18,-0.21,-0.17,-0.07,0.01,0.03
3.002,0.18,-0.21,-0.17,-0.07,0.00,0.03
3.003,0.18,-0.21,-0.17,-0.07,0.01,0.03
3.003,0.21,-0.22,-0.11,-0.07,0.01,0.03
3.005,0.21,-0.22,-0.11,-0.06,0.00,0.03
3.007,0.21,-0.22,-0.11,-0.05,0.00,0.03
3.007,0.22,-0.23,-0.08,-0.05,0.00,0.03
3.009,0.22,-0.23,-0.08,-0.05,0.01,0.03
3.011,0.22,-0.23,-0.08,-0.04,0.01,0.03
3.011,0.22,-0.22,-0.02,-0.04,0.01,0.03
3.013,0.22,-0.22,-0.02,-0.03,0.01,0.03
3.015,0.22,-0.22,-0.02,-0.02,0.01,0.03
3.015,0.24,-0.25,0.02,-0.02,0.01,0.03
3.017,0.24,-0.25,0.02,-0.01,0.03,0.03
3.019,0.24,-0.25,0.02,-0.01,0.03,0.03
3.019,0.25,-0.23,0.04,-0.01,0.03,0.03
3.021,0.25,-0.23,0.04,0.00,0.04,0.03
3.023,0.25,-0.23,0.04,0.01,0.05,0.03
3.023,0.25,-0.23,0.06,0.01,0.05,0.03
3.024,0.25,-0.23,0.06,0.01,0.06,0.02
3.027,0.25,-0.23,0.06,0.02,0.07,0.03
3.027,0.25,-0.24,0.05,0.02,0.07,0.03
3.028,0.25,-0.24,0.05,0.03,0.08,0.02
3.031,0.25,-0.24,0.05,0.04,0.10,0.03
3.031,0.24,-0.26,0.02,0.04,0.10,0.03
3.033,0.24,-0.26,0.02,0.04,0.11,0.03
3.035,0.24,-0.26,0.02,0.05,0.12,0.03
3.035,0.24,-0.26,0.02,0.05,0.12,0.03
3.037,0.24,-0.26,0.02,0.05,0.13,0.03
3.039,0.24,-0.26,0.02,0.05,0.14,0.03
3.04,0.22,-0.25,-0.02,0.05,0.14,0.03
3.041,0.22,-0.25,-0.02,0.06,0.14,0.03
3.043,0.22,-0.25,-0.02,0.06,0.15,0.03
3.043,0.20,-0.25,-0.04,0.06,0.15,0.03
3.044,0.20,-0.25,-0.04,0.06,0.16,0.03
3.047,0.20,-0.25,-0.04,0.06,0.17,0.03
3.047,0.21,-0.24,-0.09,0.06,0.17,0.03
3.048,0.21,-0.24,-0.09,0.07,0.17,0.03
3.051,0.21,-0.24,-0.09,0.07,0.17,0.03
3.052,0.20,-0.23,-0.11,0.07,0.17,0.03
3.052,0.20,-0.23,-0.11,0.07,0.17,0.03
3.055,0.20,-0.23,-0.11,0.07,0.18,0.03
3.056,0.20,-0.22,-0.15,0.07,0.18,0.03
3.057,0.20,-0.22,-0.15,0.07,0.18,0.03
3.059,0.20,-0.22,-0.15,0.07,0.18,0.03
3.059,0.19,-0.23,-0.17,0.07,0.18,0.03
3.061,0.19,-0.23,-0.17,0.07,0.18,0.03
3.063,0.19,-0.23,-0.17,0.07,0.18,0.04
3.063,0.21,-0.22,-0.20,0.07,0.18,0.04
3.064,0.21,-0.22,-0.20,0.07,0.18,0.04
3.067,0.21,-0.22,-0.20,0.07,0.18,0.03
3.067,0.20,-0.21,-0.20,0.07,0.18,0.03
3.068,0.20,-0.21,-0.20,0.07,0.18,0.04
3.071,0.20,-0.21,-0.20,0.07,0.17,0.04
3.071,0.22,-0.22,-0.23,0.07,0.17,0.04
3.073,0.22,-0.22,-0.23,0.07,0.17,0.04
3.075,0.22,-0.22,-0.23,0.07,0.17,0.04
3.075,0.23,-0.22,-0.25,0.07,0.17,0.04
3.076,0.23,-0.22,-0.25,0.07,0.17,0.04
3.079,0.23,-0.22,-0.25,0.07,0.16,0.04
3.079,0.23,-0.20,-0.27,0.07,0.16,0.04
3.08,0.23,-0.20,-0.27,0.07,0.17,0.04
3.09,0.23,-0.20,-0.27,0.06,0.16,0.04
3.09,0.25,-0.23,-0.31,0.06,0.16,0.04
3.091,0.25,-0.23,-0.31,0.06,0.16,0.04
3.091,0.25,-0.23,-0.31,0.06,0.16,0.04
3.094,0.26,-0.21,-0.32,0.06,0.16,0.04
3.094,0.26,-0.21,-0.32,0.06,0.16,0.04
3.095,0.26,-0.21,-0.32,0.06,0.16,0.04
3.095,0.26,-0.22,-0.33,0.06,0.16,0.04
3.095,0.26,-0.22,-0.33,0.06,0.15,0.04
3.096,0.26,-0.22,-0.33,0.06,0.15,0.04
3.096,0.28,-0.21,-0.33,0.06,0.15,0.04
3.096,0.28,-0.21,-0.33,0.05,0.15,0.04
3.099,0.28,-0.21,-0.33,0.05,0.15,0.05
3.099,0.29,-0.19,-0.34,0.05,0.15,0.05
3.102,0.29,-0.19,-0.34,0.05,0.15,0.05
3.103,0.29,-0.19,-0.34,0.05,0.15,0.05
3.103,0.30,-0.21,-0.33,0.05,0.15,0.05
3.104,0.30,-0.21,-0.33,0.05,0.15,0.05
3.107,0.30,-0.21,-0.33,0.05,0.15,0.05
3.107,0.31,-0.21,-0.34,0.05,0.15,0.05
3.108,0.31,-0.21,-0.34,0.05,0.15,0.05
3.111,0.31,-0.21,-0.34,0.05,0.15,0.05
3.111,0.33,-0.21,-0.32,0.05,0.15,0.05
3.112,0.33,-0.21,-0.32,0.05,0.15,0.05
3.115,0.33,-0.21,-0.32,0.05,0.15,0.05
3.115,0.33,-0.21,-0.32,0.05,0.15,0.05
3.116,0.33,-0.21,-0.32,0.05,0.15,0.05
3.119,0.33,-0.21,-0.32,0.05,0.16,0.05
3.119,0.33,-0.22,-0.30,0.05,0.16,0.05
3.12,0.33,-0.22,-0.30,0.05,0.16,0.05
3.123,0.33,-0.22,-0.30,0.05,0.16,0.05
3.123,0.33,-0.22,-0.31,0.05,0.16,0.05
3.124,0.33,-0.22,-0.31,0.05,0.16,0.05
3.127,0.33,-0.22,-0.31,0.05,0.16,0.05
3.127,0.33,-0.21,-0.29,0.05,0.16,0.05
3.128,0.33,-0.21,-0.29,0.05,0.16,0.06
3.131,0.33,-0.21,-0.29,0.05,0.17,0.05
3.131,0.33,-0.21,-0.28,0.05,0.17,0.05
3.134,0.33,-0.21,-0.28,0.05,0.17,0.06
3.135,0.33,-0.21,-0.28,0.05,0.17,0.06
3.135,0.32,-0.20,-0.27,0.05,0.17,0.06
3.137,0.32,-0.20,-0.27,0.06,0.17,0.06
3.139,0.32,-0.20,-0.27,0.06,0.18,0.06
3.139,0.31,-0.19,-0.25,0.06,0.18,0.06
3.14,0.31,-0.19,-0.25,0.06,0.18,0.06
3.143,0.31,-0.19,-0.25,0.06,0.18,0.06
3.143,0.30,-0.16,-0.25,0.06,0.18,0.06
3.144,0.30,-0.16,-0.25,0.06,0.19,0.06
3.146,0.30,-0.16,-0.25,0.06,0.19,0.06
3.147,0.31,-0.17,-0.22,0.06,0.19,0.06
3.148,0.31,-0.17,-0.22,0.06,0.20,0.06
3.151,0.31,-0.17,-0.22,0.06,0.20,0.06
3.151,0.30,-0.16,-0.24,0.06,0.20,0.06
3.152,0.30,-0.16,-0.24,0.06,0.21,0.06
3.155,0.30,-0.16,-0.24,0.06,0.21,0.06
3.155,0.27,-0.16,-0.23,0.06,0.21,0.06
3.157,0.27,-0.16,-0.23,0.06,0.21,0.06
3.159,0.27,-0.16,-0.23,0.06,0.21,0.06
3.159,0.28,-0.18,-0.23,0.06,0.21,0.06
3.16,0.28,-0.18,-0.23,0.06,0.22,0.06
3.162,0.28,-0.18,-0.23,0.06,0.22,0.06
3.163,0.26,-0.18,-0.22,0.06,0.22,0.06
3.164,0.26,-0.18,-0.22,0.07,0.22,0.06
3.167,0.26,-0.18,-0.22,0.06,0.22,0.06
3.167,0.26,-0.17,-0.20,0.06,0.22,0.06
3.168,0.26,-0.17,-0.20,0.06,0.23,0.05
3.171,0.26,-0.17,-0.20,0.06,0.23,0.05
3.171,0.23,-0.18,-0.20,0.06,0.23,0.05
3.172,0.23,-0.18,-0.20,0.06,0.23,0.05
3.175,0.23,-0.18,-0.20,0.06,0.23,0.05
3.175,0.21,-0.17,-0.16,0.06,0.23,0.05
3.176,0.21,-0.17,-0.16,0.06,0.23,0.05
3.178,0.21,-0.17,-0.16,0.06,0.23,0.05
3.179,0.19,-0.14,-0.15,0.06,0.23,0.05
3.18,0.19,-0.14,-0.15,0.06,0.23,0.05
3.183,0.19,-0.14,-0.15,0.06,0.23,0.05
3.184,0.15,-0.13,-0.13,0.06,0.23,0.05
3.184,0.15,-0.13,-0.13,0.06,0.24,0.05
3.186,0.15,-0.13,-0.13,0.06,0.23,0.05
3.187,0.10,-0.11,-0.13,0.06,0.23,0.05
3.188,0.10,-0.11,-0.13,0.06,0.23,0.04
3.19,0.10,-0.11,-0.13,0.06,0.23,0.04
3.191,0.06,-0.11,-0.09,0.06,0.23,0.04
3.192,0.06,-0.11,-0.09,0.06,0.22,0.04
3.194,0.06,-0.11,-0.09,0.06,0.22,0.04
3.195,0.03,-0.10,-0.09,0.06,0.22,0.04
3.196,0.03,-0.10,-0.09,0.06,0.22,0.04
3.198,0.03,-0.10,-0.09,0.06,0.21,0.04
3.199,-0.02,-0.09,-0.07,0.06,0.21,0.04
3.207,-0.02,-0.09,-0.07,0.06,0.21,0.04
3.208,-0.02,-0.09,-0.07,0.06,0.20,0.04
3.208,-0.07,-0.08,-0.05,0.06,0.20,0.04
3.208,-0.07,-0.08,-0.05,0.06,0.19,0.04
3.209,-0.07,-0.08,-0.05,0.06,0.19,0.04
3.209,-0.11,-0.07,-0.03,0.06,0.19,0.04
3.21,-0.11,-0.07,-0.03,0.06,0.18,0.03
3.21,-0.11,-0.07,-0.03,0.06,0.17,0.04
3.211,-0.15,-0.09,-0.04,0.06,0.17,0.04
3.212,-0.15,-0.09,-0.04,0.06,0.17,0.04
3.215,-0.15,-0.09,-0.04,0.06,0.16,0.04
3.215,-0.20,-0.09,-0.03,0.06,0.16,0.04
3.22,-0.20,-0.09,-0.03,0.06,0.15,0.04
3.22,-0.20,-0.09,-0.03,0.06,0.14,0.04
3.221,-0.22,-0.09,-0.03,0.06,0.14,0.04
3.224,-0.22,-0.09,-0.03,0.06,0.13,0.03
3.224,-0.22,-0.09,-0.03,0.06,0.13,0.03
3.224,-0.25,-0.09,-0.02,0.06,0.13,0.03
3.225,-0.25,-0.09,-0.02,0.06,0.12,0.03
3.226,-0.25,-0.09,-0.02,0.07,0.12,0.03
3.227,-0.26,-0.08,-0.04,0.07,0.12,0.03
3.228,-0.26,-0.08,-0.04,0.07,0.11,0.03
3.23,-0.26,-0.08,-0.04,0.07,0.10,0.03
3.23,-0.26,-0.10,-0.05,0.07,0.10,0.03
3.232,-0.26,-0.10,-0.05,0.06,0.10,0.03
3.234,-0.26,-0.10,-0.05,0.07,0.09,0.03
3.235,-0.28,-0.08,-0.08,0.07,0.09,0.03
3.236,-0.28,-0.08,-0.08,0.06,0.09,0.03
3.238,-0.28,-0.08,-0.08,0.07,0.08,0.03
3.239,-0.27,-0.10,-0.08,0.07,0.08,0.03
3.24,-0.27,-0.10,-0.08,0.06,0.08,0.03
3.242,-0.27,-0.10,-0.08,0.06,0.08,0.03
3.243,-0.27,-0.10,-0.09,0.06,0.08,0.03
3.244,-0.27,-0.10,-0.09,0.06,0.08,0.03
3.246,-0.27,-0.10,-0.09,0.07,0.07,0.03
3.246,-0.28,-0.09,-0.12,0.07,0.07,0.03
3.248,-0.28,-0.09,-0.12,0.06,0.07,0.03
3.25,-0.28,-0.09,-0.12,0.06,0.06,0.03
3.251,-0.26,-0.08,-0.12,0.06,0.06,0.03
3.252,-0.26,-0.08,-0.12,0.06,0.06,0.03
3.255,-0.26,-0.08,-0.12,0.06,0.06,0.03
3.256,-0.24,-0.05,-0.11,0.06,0.06,0.03
3.256,-0.24,-0.05,-0.11,0.06,0.05,0.02
3.258,-0.24,-0.05,-0.11,0.06,0.06,0.02
3.258,-0.24,-0.06,-0.12,0.06,0.06,0.02
3.26,-0.24,-0.06,-0.12,0.06,0.05,0.03
3.262,-0.24,-0.06,-0.12,0.06,0.05,0.02
3.262,-0.24,-0.04,-0.12,0.06,0.05,0.02
3.264,-0.24,-0.04,-0.12,0.06,0.05,0.02
3.267,-0.24,-0.04,-0.12,0.06,0.04,0.02
3.267,-0.25,-0.02,-0.17,0.06,0.04,0.02
3.268,-0.25,-0.02,-0.17,0.06,0.05,0.02
3.27,-0.25,-0.02,-0.17,0.06,0.04,0.02
3.271,-0.23,-0.02,-0.16,0.06,0.04,0.02
3.272,-0.23,-0.02,-0.16,0.05,0.04,0.02
3.274,-0.23,-0.02,-0.16,0.05,0.04,0.02
3.275,-0.23,-0.01,-0.14,0.05,0.04,0.02
3.276,-0.23,-0.01,-0.14,0.05,0.05,0.02
3.278,-0.23,-0.01,-0.14,0.05,0.04,0.02
3.279,-0.23,-0.02,-0.16,0.05,0.04,0.02
3.28,-0.23,-0.02,-0.16,0.05,0.04,0.02
3.282,-0.23,-0.02,-0.16,0.05,0.04,0.02
3.282,-0.25,-0.02,-0.15,0.05,0.04,0.02
3.284,-0.25,-0.02,-0.15,0.05,0.04,0.02
3.286,-0.25,-0.02,-0.15,0.05,0.04,0.02
3.286,-0.25,-0.03,-0.15,0.05,0.04,0.02
3.288,-0.25,-0.03,-0.15,0.05,0.04,0.02
3.29,-0.25,-0.03,-0.15,0.05,0.03,0.02
3.29,-0.26,-0.05,-0.14,0.05,0.03,0.02
3.292,-0.26,-0.05,-0.14,0.04,0.04,0.02
3.294,-0.26,-0.05,-0.14,0.04,0.03,0.02
3.294,-0.26,-0.06,-0.13,0.04,0.03,0.02
3.296,-0.26,-0.06,-0.13,0.04,0.03,0.02
3.298,-0.26,-0.06,-0.13,0.04,0.03,0.02
3.298,-0.27,-0.06,-0.11,0.04,0.03,0.02
3.306,-0.27,-0.06,-0.11,0.04,0.03,0.02
3.307,-0.27,-0.06,-0.11,0.05,0.03,0.03
3.307,-0.30,-0.08,-0.11,0.05,0.03,0.03
3.308,-0.30,-0.08,-0.11,0.04,0.02,0.03
3.308,-0.30,-0.08,-0.11,0.05,0.02,0.03
3.308,-0.31,-0.09,-0.12,0.05,0.02,0.03
3.309,-0.31,-0.09,-0.12,0.05,0.02,0.03
3.31,-0.31,-0.09,-0.12,0.05,0.02,0.03
3.31,-0.28,-0.10,-0.11,0.05,0.02,0.03
3.312,-0.28,-0.10,-0.11,0.05,0.02,0.03
3.314,-0.28,-0.10,-0.11,0.05,0.02,0.03
3.315,-0.25,-0.12,-0.10,0.05,0.02,0.03
3.319,-0.25,-0.12,-0.10,0.05,0.02,0.03
3.32,-0.25,-0.12,-0.10,0.06,0.02,0.03
3.32,-0.23,-0.11,-0.11,0.06,0.02,0.03
3.321,-0.23,-0.11,-0.11,0.05,0.02,0.03
3.322,-0.23,-0.11,-0.11,0.05,0.03,0.03
3.323,-0.22,-0.12,-0.11,0.05,0.03,0.03
3.324,-0.22,-0.12,-0.11,0.06,0.03,0.03
3.326,-0.22,-0.12,-0.11,0.06,0.03,0.03
3.326,-0.20,-0.12,-0.11,0.06,0.03,0.03
3.328,-0.20,-0.12,-0.11,0.06,0.03,0.03
3.33,-0.20,-0.12,-0.11,0.06,0.04,0.03
3.33,-0.15,-0.10,-0.13,0.06,0.04,0.03
3.331,-0.15,-0.10,-0.13,0.06,0.03,0.03
3.334,-0.15,-0.10,-0.13,0.06,0.04,0.03
3.334,-0.13,-0.07,-0.13,0.06,0.04,0.03
3.336,-0.13,-0.07,-0.13,0.06,0.04,0.04
3.338,-0.13,-0.07,-0.13,0.06,0.04,0.04
3.338,-0.10,-0.04,-0.14,0.06,0.04,0.04
3.34,-0.10,-0.04,-0.14,0.06,0.05,0.04
3.342,-0.10,-0.04,-0.14,0.06,0.05,0.04
3.342,-0.10,-0.02,-0.16,0.06,0.05,0.04
3.344,-0.10,-0.02,-0.16,0.06,0.04,0.04
3.346,-0.10,-0.02,-0.16,0.06,0.04,0.04
3.346,-0.07,0.00,-0.16,0.06,0.04,0.04
3.347,-0.07,0.00,-0.16,0.06,0.04,0.04
3.35,-0.07,0.00,-0.16,0.06,0.05,0.03
3.351,-0.03,0.03,-0.20,0.06,0.05,0.03
3.352,-0.03,0.03,-0.20,0.05,0.04,0.04
3.355,-0.03,0.03,-0.20,0.05,0.04,0.03
3.355,0.00,0.02,-0.22,0.05,0.04,0.03
3.356,0.00,0.02,-0.22,0.05,0.03,0.03
3.358,0.00,0.02,-0.22,0.05,0.04,0.03
3.358,0.03,0.03,-0.24,0.05,0.04,0.03
3.359,0.03,0.03,-0.24,0.04,0.03,0.03
3.362,0.03,0.03,-0.24,0.04,0.03,0.03
3.362,0.07,0.04,-0.27,0.04,0.03,0.03
3.363,0.07,0.04,-0.27,0.04,0.03,0.03
3.367,0.07,0.04,-0.27,0.03,0.02,0.03
3.367,0.09,0.04,-0.29,0.03,0.02,0.03
3.367,0.09,0.04,-0.29,0.03,0.02,0.03
3.37,0.09,0.04,-0.29,0.02,0.02,0.03
3.37,0.13,0.05,-0.30,0.02,0.02,0.03
3.372,0.13,0.05,-0.30,0.02,0.01,0.03
3.374,0.13,0.05,-0.30,0.01,0.01,0.03
3.375,0.16,0.06,-0.31,0.01,0.01,0.03
3.376,0.16,0.06,-0.31,0.01,0.01,0.03
3.378,0.16,0.06,-0.31,0.00,0.00,0.02
3.378,0.20,0.05,-0.30,0.00,0.00,0.02
3.379,0.20,0.05,-0.30,-0.00,0.00,0.02
3.382,0.20,0.05,-0.30,-0.01,-0.00,0.02
3.382,0.22,0.05,-0.30,-0.01,-0.00,0.02
3.383,0.22,0.05,-0.30,-0.01,-0.01,0.02
3.386,0.22,0.05,-0.30,-0.02,-0.01,0.02
3.386,0.24,0.05,-0.28,-0.02,-0.01,0.02
3.388,0.24,0.05,-0.28,-0.02,-0.01,0.01
3.39,0.24,0.05,-0.28,-0.03,-0.02,0.01
3.391,0.25,0.04,-0.24,-0.03,-0.02,0.01
3.391,0.25,0.04,-0.24,-0.03,-0.02,0.01
3.394,0.25,0.04,-0.24,-0.04,-0.03,0.01
3.394,0.25,0.04,-0.20,-0.04,-0.03,0.01
3.395,0.25,0.04,-0.20,-0.04,-0.03,0.00
3.398,0.25,0.04,-0.20,-0.05,-0.03,-0.00
3.398,0.25,0.01,-0.17,-0.05,-0.03,-0.00
3.407,0.25,0.01,-0.17,-0.05,-0.04,-0.00
3.408,0.25,0.01,-0.17,-0.05,-0.04,-0.01
3.408,0.19,0.00,-0.11,-0.05,-0.04,-0.01
3.408,0.19,0.00,-0.11,-0.05,-0.04,-0.01
3.409,0.19,0.00,-0.11,-0.05,-0.05,-0.01
3.409,0.14,-0.05,-0.06,-0.05,-0.05,-0.01
3.409,0.14,-0.05,-0.06,-0.05,-0.05,-0.01
3.41,0.14,-0.05,-0.06,-0.06,-0.06,-0.02
3.41,0.07,-0.08,-0.02,-0.06,-0.06,-0.02
3.411,0.07,-0.08,-0.02,-0.06,-0.06,-0.02
3.414,0.07,-0.08,-0.02,-0.05,-0.06,-0.02
3.414,-0.01,-0.10,0.01,-0.05,-0.06,-0.02
3.415,-0.01,-0.10,0.01,-0.06,-0.06,-0.03
3.42,-0.01,-0.10,0.01,-0.05,-0.07,-0.03
3.421,-0.09,-0.13,0.06,-0.05,-0.07,-0.03
3.422,-0.09,-0.13,0.06,-0.05,-0.07,-0.03
3.422,-0.09,-0.13,0.06,-0.05,-0.07,-0.03
3.422,-0.19,-0.15,0.08,-0.05,-0.07,-0.03
3.423,-0.19,-0.15,0.08,-0.05,-0.07,-0.03
3.426,-0.19,-0.15,0.08,-0.04,-0.08,-0.03
3.426,-0.25,-0.17,0.11,-0.04,-0.08,-0.03
3.427,-0.25,-0.17,0.11,-0.04,-0.08,-0.03
3.43,-0.25,-0.17,0.11,-0.04,-0.08,-0.03
3.43,-0.33,-0.19,0.13,-0.04,-0.08,-0.03
3.431,-0.33,-0.19,0.13,-0.04,-0.08,-0.03
3.434,-0.33,-0.19,0.13,-0.03,-0.09,-0.03
3.434,-0.35,-0.20,0.16,-0.03,-0.09,-0.03
3.435,-0.35,-0.20,0.16,-0.02,-0.09,-0.03
3.438,-0.35,-0.20,0.16,-0.02,-0.09,-0.03
3.439,-0.37,-0.21,0.15,-0.02,-0.09,-0.03
3.439,-0.37,-0.21,0.15,-0.01,-0.09,-0.03
3.442,-0.37,-0.21,0.15,-0.01,-0.09,-0.03
3.442,-0.37,-0.19,0.16,-0.01,-0.09,-0.03
3.443,-0.37,-0.19,0.16,-0.00,-0.09,-0.02
3.445,-0.37,-0.19,0.16,0.00,-0.09,-0.02
3.446,-0.37,-0.18,0.14,0.00,-0.09,-0.02
3.447,-0.37,-0.18,0.14,0.01,-0.09,-0.02
3.45,-0.37,-0.18,0.14,0.01,-0.09,-0.02
3.451,-0.33,-0.15,0.13,0.01,-0.09,-0.02
3.451,-0.33,-0.15,0.13,0.02,-0.08,-0.02
3.454,-0.33,-0.15,0.13,0.02,-0.08,-0.03
3.454,-0.28,-0.12,0.08,0.02,-0.08,-0.03
3.455,-0.28,-0.12,0.08,0.03,-0.08,-0.02
3.458,-0.28,-0.12,0.08,0.03,-0.07,-0.02
3.458,-0.20,-0.10,0.04,0.03,-0.07,-0.02
3.459,-0.20,-0.10,0.04,0.04,-0.07,-0.03
3.461,-0.20,-0.10,0.04,0.04,-0.07,-0.03
3.462,-0.15,-0.10,-0.03,0.04,-0.07,-0.03
3.463,-0.15,-0.10,-0.03,0.04,-0.06,-0.03
3.465,-0.15,-0.10,-0.03,0.04,-0.05,-0.03
3.466,-0.07,-0.08,-0.09,0.04,-0.05,-0.03
3.467,-0.07,-0.08,-0.09,0.04,-0.05,-0.03
3.47,-0.07,-0.08,-0.09,0.04,-0.05,-0.03
3.47,0.00,-0.09,-0.17,0.04,-0.05,-0.03
3.471,0.00,-0.09,-0.17,0.04,-0.04,-0.03
3.474,0.00,-0.09,-0.17,0.04,-0.03,-0.04
3.475,0.07,-0.09,-0.22,0.04,-0.03,-0.04
3.475,0.07,-0.09,-0.22,0.04,-0.03,-0.04
3.477,0.07,-0.09,-0.22,0.04,-0.02,-0.04
3.478,0.14,-0.06,-0.27,0.04,-0.02,-0.04
3.479,0.14,-0.06,-0.27,0.04,-0.02,-0.04
3.481,0.14,-0.06,-0.27,0.03,-0.01,-0.04
3.482,0.20,-0.04,-0.28,0.03,-0.01,-0.04
3.49,0.20,-0.04,-0.28,0.03,-0.01,-0.05
3.491,0.20,-0.04,-0.28,0.03,-0.00,-0.05
3.494,0.24,0.01,-0.30,0.03,-0.00,-0.05
3.494,0.24,0.01,-0.30,0.03,0.00,-0.05
3.494,0.24,0.01,-0.30,0.02,0.00,-0.05
3.495,0.27,0.04,-0.29,0.02,0.00,-0.05
3.495,0.27,0.04,-0.29,0.02,0.01,-0.05
3.495,0.27,0.04,-0.29,0.02,0.01,-0.05
3.496,0.27,0.09,-0.28,0.02,0.01,-0.05
3.496,0.27,0.09,-0.28,0.01,0.01,-0.05
3.497,0.27,0.09,-0.28,0.01,0.01,-0.05
3.498,0.28,0.13,-0.25,0.01,0.01,-0.05
3.502,0.28,0.13,-0.25,0.01,0.01,-0.05
3.502,0.28,0.13,-0.25,0.01,0.00,-0.06
3.503,0.27,0.14,-0.22,0.01,0.00,-0.06
3.503,0.27,0.14,-0.22,0.00,0.00,-0.06
3.505,0.27,0.14,-0.22,-0.00,-0.00,-0.05
3.506,0.23,0.16,-0.20,-0.00,-0.00,-0.05
3.507,0.23,0.16,-0.20,-0.01,-0.00,-0.05
3.509,0.23,0.16,-0.20,-0.01,-0.01,-0.06
3.51,0.21,0.16,-0.17,-0.01,-0.01,-0.06
3.511,0.21,0.16,-0.17,-0.01,-0.01,-0.05
3.513,0.19,0.16,-0.15,-0.01,-0.01,-0.05
3.513,0.19,0.16,-0.15,-0.01,-0.02,-0.05
3.515,0.19,0.16,-0.15,-0.01,-0.02,-0.05
3.517,0.19,0.16,-0.15,-0.02,-0.03,-0.06
3.517,0.18,0.15,-0.13,-0.02,-0.03,-0.06
3.519,0.18,0.15,-0.13,-0.02,-0.03,-0.06
3.522,0.18,0.15,-0.13,-0.03,-0.04,-0.06
3.522,0.18,0.14,-0.13,-0.03,-0.04,-0.06
3.523,0.18,0.14,-0.13,-0.03,-0.05,-0.06
3.525,0.18,0.14,-0.13,-0.04,-0.05,-0.06
3.526,0.19,0.13,-0.11,-0.04,-0.05,-0.06
3.527,0.19,0.13,-0.11,-0.05,-0.06,-0.06
3.529,0.19,0.13,-0.11,-0.05,-0.06,-0.07
3.529,0.20,0.11,-0.11,-0.05,-0.06,-0.07
3.531,0.20,0.11,-0.11,-0.05,-0.06,-0.07
3.533,0.20,0.11,-0.11,-0.06,-0.07,-0.07
3.534,0.21,0.08,-0.11,-0.06,-0.07,-0.07
3.535,0.21,0.08,-0.11,-0.07,-0.07,-0.08
3.537,0.21,0.08,-0.11,-0.07,-0.07,-0.08
3.538,0.20,0.04,-0.08,-0.07,-0.07,-0.08
3.539,0.20,0.04,-0.08,-0.07,-0.08,-0.08
3.541,0.20,0.04,-0.08,-0.08,-0.08,-0.08
3.542,0.18,-0.01,-0.08,-0.08,-0.08,-0.08
3.543,0.18,-0.01,-0.08,-0.08,-0.08,-0.09
3.545,0.18,-0.01,-0.08,-0.09,-0.09,-0.09
3.545,0.16,-0.05,-0.07,-0.09,-0.09,-0.09
3.547,0.16,-0.05,-0.07,-0.09,-0.09,-0.09
3.55,0.16,-0.05,-0.07,-0.09,-0.09,-0.09
3.55,0.13,-0.08,-0.07,-0.09,-0.09,-0.09
3.551,0.13,-0.08,-0.07,-0.10,-0.09,-0.09
3.553,0.13,-0.08,-0.07,-0.10,-0.09,-0.09
3.554,0.11,-0.09,-0.06,-0.10,-0.09,-0.09
3.555,0.11,-0.09,-0.06,-0.10,-0.09,-0.09
3.557,0.11,-0.09,-0.06,-0.11,-0.09,-0.10
3.558,0.09,-0.12,-0.03,-0.11,-0.09,-0.10
3.559,0.09,-0.12,-0.03,-0.11,-0.08,-0.09
3.561,0.09,-0.12,-0.03,-0.11,-0.08,-0.09
3.561,0.10,-0.08,-0.03,-0.11,-0.08,-0.09
3.563,0.10,-0.08,-0.03,-0.11,-0.07,-0.09
3.565,0.10,-0.08,-0.03,-0.12,-0.06,-0.09
3.565,0.11,-0.07,0.00,-0.12,-0.06,-0.09
3.567,0.11,-0.07,0.00,-0.12,-0.05,-0.09
3.569,0.11,-0.07,0.00,-0.12,-0.04,-0.08
3.569,0.10,-0.07,0.01,-0.12,-0.04,-0.08
3.571,0.10,-0.07,0.01,-0.12,-0.04,-0.08
3.573,0.08,-0.14,0.02,-0.12,-0.04,-0.08
3.574,0.08,-0.14,0.02,-0.12,-0.03,-0.07
3.575,0.08,-0.14,0.02,-0.12,-0.03,-0.07
3.577,0.08,-0.14,0.02,-0.12,-0.03,-0.07
3.577,0.05,-0.21,0.05,-0.12,-0.03,-0.07
3.579,0.05,-0.21,0.05,-0.12,-0.02,-0.07
3.581,0.05,-0.21,0.05,-0.11,-0.02,-0.06
3.581,0.08,-0.27,0.07,-0.11,-0.02,-0.06
3.589,0.08,-0.27,0.07,-0.11,-0.01,-0.06
3.59,0.08,-0.27,0.07,-0.11,-0.01,-0.06
3.59,0.15,-0.27,0.11,-0.11,-0.01,-0.06
3.591,0.15,-0.27,0.11,-0.10,-0.00,-0.06
3.591,0.15,-0.27,0.11,-0.10,0.00,-0.06
3.591,0.25,-0.24,0.13,-0.10,0.00,-0.06
3.592,0.25,-0.24,0.13,-0.09,0.01,-0.07
3.593,0.25,-0.24,0.13,-0.09,0.01,-0.07
3.594,0.35,-0.20,0.17,-0.09,0.01,-0.07
3.595,0.35,-0.20,0.17,-0.08,0.02,-0.08
3.597,0.35,-0.20,0.17,-0.07,0.02,-0.08
3.598,0.46,-0.17,0.18,-0.07,0.02,-0.08
3.599,0.46,-0.17,0.18,-0.07,0.03,-0.09
3.601,0.46,-0.17,0.18,-0.06,0.03,-0.09
3.602,0.51,-0.16,0.18,-0.06,0.03,-0.09
3.603,0.51,-0.16,0.18,-0.05,0.04,-0.10
3.605,0.51,-0.16,0.18,-0.04,0.04,-0.10
3.606,0.52,-0.16,0.19,-0.04,0.04,-0.10
3.607,0.52,-0.16,0.19,-0.04,0.04,-0.10
3.609,0.52,-0.16,0.19,-0.03,0.04,-0.10
3.61,0.49,-0.22,0.17,-0.03,0.04,-0.10
3.611,0.49,-0.22,0.17,-0.02,0.04,-0.10
3.613,0.49,-0.22,0.17,-0.01,0.04,-0.10
3.613,0.39,-0.29,0.15,-0.01,0.04,-0.10
3.615,0.39,-0.29,0.15,0.00,0.04,-0.09
3.617,0.39,-0.29,0.15,0.01,0.03,-0.09
3.618,0.26,-0.44,0.13,0.01,0.03,-0.09
3.62,0.26,-0.44,0.13,0.03,0.02,-0.08
3.621,0.26,-0.44,0.13,0.04,0.00,-0.07
3.622,0.14,-0.57,0.10,0.04,0.00,-0.07
3.623,0.14,-0.57,0.10,0.05,-0.01,-0.06
3.625,0.14,-0.57,0.10,0.06,-0.02,-0.05
3.625,-0.03,-0.74,0.04,0.06,-0.02,-0.05
3.627,-0.03,-0.74,0.04,0.08,-0.04,-0.04
3.629,-0.03,-0.74,0.04,0.09,-0.06,-0.03
3.629,-0.13,-0.87,0.01,0.09,-0.06,-0.03
3.631,-0.13,-0.87,0.01,0.10,-0.08,-0.02
3.633,-0.13,-0.87,0.01,0.11,-0.10,-0.02
3.634,-0.19,-0.96,-0.06,0.11,-0.10,-0.02
3.635,-0.19,-0.96,-0.06,0.12,-0.11,-0.00
3.637,-0.19,-0.96,-0.06,0.13,-0.13,-0.00
3.638,-0.19,-1.00,-0.12,0.13,-0.13,-0.00
3.639,-0.19,-1.00,-0.12,0.14,-0.15,0.01
3.641,-0.19,-1.00,-0.12,0.15,-0.17,0.01
3.642,-0.16,-0.95,-0.19,0.15,-0.17,0.01
3.642,-0.16,-0.95,-0.19,0.16,-0.18,0.01
3.645,-0.16,-0.95,-0.19,0.17,-0.19,0.02
3.645,-0.09,-0.82,-0.25,0.17,-0.19,0.02
3.646,-0.09,-0.82,-0.25,0.17,-0.20,0.02
3.649,-0.09,-0.82,-0.25,0.17,-0.21,0.02
3.649,-0.03,-0.64,-0.34,0.17,-0.21,0.02
3.65,-0.03,-0.64,-0.34,0.17,-0.21,0.02
3.653,-0.03,-0.64,-0.34,0.17,-0.21,0.02
3.653,0.04,-0.44,-0.42,0.17,-0.21,0.02
3.655,0.04,-0.44,-0.42,0.16,-0.20,0.02
3.657,0.04,-0.44,-0.42,0.16,-0.20,0.02
3.657,0.10,-0.22,-0.49,0.16,-0.20,0.02
3.658,0.10,-0.22,-0.49,0.15,-0.20,0.01
3.661,0.10,-0.22,-0.49,0.14,-0.19,0.02
3.661,0.17,-0.03,-0.56,0.14,-0.19,0.02
3.662,0.17,-0.03,-0.56,0.14,-0.18,0.01
3.665,0.17,-0.03,-0.56,0.12,-0.17,0.01
3.665,0.22,0.13,-0.61,0.12,-0.17,0.01
3.666,0.22,0.13,-0.61,0.11,-0.15,0.00
3.669,0.22,0.13,-0.61,0.10,-0.15,0.00
3.669,0.25,0.30,-0.66,0.10,-0.15,0.00
3.67,0.25,0.30,-0.66,0.09,-0.13,-0.00
3.673,0.25,0.30,-0.66,0.08,-0.12,-0.01
3.673,0.32,0.43,-0.66,0.08,-0.12,-0.01
3.674,0.32,0.43,-0.66,0.06,-0.10,-0.01
3.677,0.32,0.43,-0.66,0.05,-0.09,-0.02
3.677,0.35,0.54,-0.66,0.05,-0.09,-0.02
3.678,0.35,0.54,-0.66,0.04,-0.07,-0.02
3.681,0.35,0.54,-0.66,0.02,-0.05,-0.03
3.681,0.35,0.62,-0.61,0.02,-0.05,-0.03
3.688,0.35,0.62,-0.61,0.01,-0.04,-0.03
3.689,0.35,0.62,-0.61,0.00,-0.02,-0.04
3.689,0.33,0.67,-0.55,0.00,-0.02,-0.04
3.689,0.33,0.67,-0.55,-0.01,-0.00,-0.04
3.69,0.33,0.67,-0.55,-0.02,0.01,-0.04
3.69,0.30,0.65,-0.49,-0.02,0.01,-0.04
3.691,0.30,0.65,-0.49,-0.03,0.02,-0.05
3.693,0.30,0.65,-0.49,-0.04,0.04,-0.05
3.694,0.24,0.62,-0.40,-0.04,0.04,-0.05
3.694,0.24,0.62,-0.40,-0.05,0.05,-0.05
3.697,0.24,0.62,-0.40,-0.05,0.05,-0.05
3.697,0.16,0.53,-0.32,-0.05,0.05,-0.05
3.698,0.16,0.53,-0.32,-0.06,0.06,-0.05
3.701,0.16,0.53,-0.32,-0.06,0.06,-0.06
3.701,0.10,0.40,-0.24,-0.06,0.06,-0.06
3.702,0.10,0.40,-0.24,-0.06,0.07,-0.06
3.705,0.10,0.40,-0.24,-0.07,0.06,-0.06
3.705,0.01,0.30,-0.17,-0.07,0.06,-0.06
3.706,0.01,0.30,-0.17,-0.07,0.06,-0.06
3.709,0.01,0.30,-0.17,-0.07,0.05,-0.06
3.709,-0.07,0.19,-0.09,-0.07,0.05,-0.06
3.71,-0.07,0.19,-0.09,-0.07,0.05,-0.06
3.713,-0.07,0.19,-0.09,-0.07,0.04,-0.06
3.713,-0.14,0.08,-0.04,-0.07,0.04,-0.06
3.715,-0.14,0.08,-0.04,-0.07,0.03,-0.06
3.717,-0.14,0.08,-0.04,-0.07,0.02,-0.06
3.718,-0.17,-0.00,0.02,-0.07,0.02,-0.06
3.718,-0.17,-0.00,0.02,-0.06,0.00,-0.06
3.721,-0.17,-0.00,0.02,-0.06,-0.01,-0.06
3.722,-0.20,-0.09,0.06,-0.06,-0.01,-0.06
3.722,-0.20,-0.09,0.06,-0.06,-0.02,-0.06
3.725,-0.20,-0.09,0.06,-0.06,-0.03,-0.06
3.726,-0.20,-0.16,0.12,-0.06,-0.03,-0.06
3.726,-0.20,-0.16,0.12,-0.05,-0.04,-0.06
3.729,-0.20,-0.16,0.12,-0.05,-0.05,-0.06
3.729,-0.20,-0.20,0.16,-0.05,-0.05,-0.06
3.73,-0.20,-0.20,0.16,-0.05,-0.06,-0.06
3.733,-0.20,-0.20,0.16,-0.04,-0.07,-0.06
3.734,-0.21,-0.26,0.20,-0.04,-0.07,-0.06
3.734,-0.21,-0.26,0.20,-0.04,-0.08,-0.06
3.737,-0.21,-0.26,0.20,-0.04,-0.08,-0.06
3.737,-0.21,-0.30,0.23,-0.04,-0.08,-0.06
3.738,-0.21,-0.30,0.23,-0.04,-0.08,-0.06
3.741,-0.21,-0.30,0.23,-0.03,-0.09,-0.06
3.741,-0.20,-0.33,0.26,-0.03,-0.09,-0.06
3.742,-0.20,-0.33,0.26,-0.03,-0.09,-0.06
3.744,-0.20,-0.33,0.26,-0.03,-0.09,-0.06
3.745,-0.20,-0.34,0.28,-0.03,-0.09,-0.06
3.746,-0.20,-0.34,0.28,-0.03,-0.09,-0.06
3.748,-0.20,-0.34,0.28,-0.03,-0.09,-0.06
3.749,-0.19,-0.34,0.32,-0.03,-0.09,-0.06
3.75,-0.19,-0.34,0.32,-0.03,-0.09,-0.06
3.753,-0.19,-0.34,0.32,-0.03,-0.09,-0.06
3.753,-0.20,-0.32,0.35,-0.03,-0.09,-0.06
3.754,-0.20,-0.32,0.35,-0.02,-0.09,-0.06
3.757,-0.20,-0.32,0.35,-0.02,-0.09,-0.06
3.757,-0.22,-0.28,0.39,-0.02,-0.09,-0.06
3.758,-0.22,-0.28,0.39,-0.02,-0.08,-0.05
3.76,-0.22,-0.28,0.39,-0.02,-0.08,-0.05
3.761,-0.20,-0.25,0.42,-0.02,-0.08,-0.05
3.762,-0.20,-0.25,0.42,-0.01,-0.08,-0.05
3.764,-0.20,-0.25,0.42,-0.01,-0.08,-0.05
3.765,-0.22,-0.17,0.44,-0.01,-0.08,-0.05
3.766,-0.22,-0.17,0.44,-0.01,-0.07,-0.04
3.769,-0.22,-0.17,0.44,-0.01,-0.07,-0.04
3.769,-0.24,-0.12,0.47,-0.01,-0.07,-0.04
3.77,-0.24,-0.12,0.47,-0.00,-0.07,-0.04
3.773,-0.24,-0.12,0.47,-0.00,-0.07,-0.04
3.774,-0.24,-0.08,0.47,-0.00,-0.07,-0.04
3.774,-0.24,-0.08,0.47,0.01,-0.06,-0.04
3.776,-0.24,-0.08,0.47,0.01,-0.06,-0.03
3.777,-0.24,-0.05,0.46,0.01,-0.06,-0.03
3.778,-0.24,-0.05,0.46,0.01,-0.06,-0.03
3.78,-0.24,-0.05,0.46,0.02,-0.06,-0.03
3.781,-0.25,-0.01,0.45,0.02,-0.06,-0.03
3.782,-0.25,-0.01,0.45,0.02,-0.06,-0.03
3.784,-0.25,-0.01,0.45,0.02,-0.05,-0.02
3.785,-0.27,-0.01,0.43,0.02,-0.05,-0.02
3.786,-0.27,-0.01,0.43,0.03,-0.05,-0.02
3.789,-0.27,-0.01,0.43,0.03,-0.05,-0.02
3.789,-0.23,0.01,0.37,0.03,-0.05,-0.02
3.79,-0.23,0.01,0.37,0.03,-0.05,-0.02
3.792,-0.23,0.01,0.37,0.04,-0.05,-0.02
3.793,-0.21,0.02,0.32,0.04,-0.05,-0.02
3.794,-0.21,0.02,0.32,0.04,-0.04,-0.01
3.796,-0.21,0.02,0.32,0.04,-0.04,-0.01
3.797,-0.18,0.01,0.25,0.04,-0.04,-0.01
3.798,-0.18,0.01,0.25,0.04,-0.04,-0.01
3.806,-0.18,0.01,0.25,0.04,-0.03,-0.01
3.807,-0.13,-0.00,0.18,0.04,-0.03,-0.01
3.807,-0.13,-0.00,0.18,0.04,-0.03,-0.01
3.807,-0.13,-0.00,0.18,0.04,-0.03,-0.01
3.808,-0.09,0.00,0.11,0.04,-0.03,-0.01
3.808,-0.09,0.00,0.11,0.03,-0.02,-0.01
3.808,-0.09,0.00,0.11,0.03,-0.02,-0.00
3.809,-0.05,-0.02,0.04,0.03,-0.02,-0.00
3.81,-0.05,-0.02,0.04,0.03,-0.02,-0.01
3.812,-0.05,-0.02,0.04,0.03,-0.02,-0.00
3.813,0.01,-0.01,-0.00,0.03,-0.02,-0.00
3.814,0.01,-0.01,-0.00,0.02,-0.02,-0.00
3.817,0.01,-0.01,-0.00,0.02,-0.01,-0.00
3.817,0.05,-0.01,-0.05,0.02,-0.01,-0.00
3.818,0.05,-0.01,-0.05,0.01,-0.01,-0.00
3.82,0.05,-0.01,-0.05,0.01,-0.01,-0.00
3.821,0.08,-0.00,-0.09,0.01,-0.01,-0.00
3.822,0.08,-0.00,-0.09,0.01,-0.01,-0.00
3.824,0.08,-0.00,-0.09,0.00,-0.01,-0.00
3.825,0.12,-0.00,-0.11,0.00,-0.01,-0.00
3.826,0.12,-0.00,-0.11,-0.00,-0.01,-0.00
3.828,0.12,-0.00,-0.11,-0.01,-0.00,-0.00
3.829,0.16,0.01,-0.15,-0.01,-0.00,-0.00
3.83,0.16,0.01,-0.15,-0.01,-0.01,-0.00
3.833,0.16,0.01,-0.15,-0.01,-0.01,-0.01
3.834,0.19,-0.00,-0.16,-0.01,-0.01,-0.01
3.834,0.19,-0.00,-0.16,-0.02,-0.01,-0.00
3.836,0.19,-0.00,-0.16,-0.02,-0.00,-0.00
3.837,0.22,-0.01,-0.14,-0.02,-0.00,-0.00
3.838,0.22,-0.01,-0.14,-0.02,-0.01,-0.00
3.841,0.22,-0.01,-0.14,-0.02,-0.01,-0.01
3.841,0.23,-0.03,-0.13,-0.02,-0.01,-0.01
3.842,0.23,-0.03,-0.13,-0.02,-0.01,-0.01
3.844,0.23,-0.03,-0.13,-0.02,-0.00,-0.01
3.845,0.27,-0.05,-0.11,-0.02,-0.00,-0.01
3.846,0.27,-0.05,-0.11,-0.03,-0.00,-0.01
3.848,0.27,-0.05,-0.11,-0.03,-0.01,-0.01
3.848,0.28,-0.07,-0.08,-0.03,-0.01,-0.01
3.85,0.28,-0.07,-0.08,-0.03,-0.01,-0.01
3.852,0.28,-0.07,-0.08,-0.03,-0.00,-0.01
3.852,0.30,-0.10,-0.05,-0.03,-0.00,-0.01
3.854,0.30,-0.10,-0.05,-0.03,-0.01,-0.02
3.856,0.30,-0.10,-0.05,-0.03,-0.00,-0.02
3.857,0.30,-0.12,-0.02,-0.03,-0.00,-0.02
3.858,0.30,-0.12,-0.02,-0.02,-0.00,-0.02
3.86,0.30,-0.12,-0.02,-0.02,-0.01,-0.02
3.86,0.29,-0.12,0.02,-0.02,-0.01,-0.02
3.862,0.29,-0.12,0.02,-0.02,-0.01,-0.02
3.864,0.29,-0.12,0.02,-0.02,-0.01,-0.02
3.864,0.27,-0.15,0.05,-0.02,-0.01,-0.02
3.866,0.27,-0.15,0.05,-0.02,-0.00,-0.02
3.868,0.27,-0.15,0.05,-0.02,-0.00,-0.02
3.869,0.24,-0.13,0.07,-0.02,-0.00,-0.02
3.87,0.24,-0.13,0.07,-0.02,-0.00,-0.02
3.872,0.24,-0.13,0.07,-0.01,-0.00,-0.02
3.873,0.21,-0.13,0.09,-0.01,-0.00,-0.02
3.874,0.21,-0.13,0.09,-0.01,-0.00,-0.02
3.876,0.21,-0.13,0.09,-0.00,-0.00,-0.02
3.876,0.17,-0.11,0.09,-0.00,-0.00,-0.02
3.878,0.17,-0.11,0.09,-0.00,-0.00,-0.02
3.88,0.17,-0.11,0.09,-0.00,-0.00,-0.02
3.88,0.13,-0.10,0.11,-0.00,-0.00,-0.02
3.882,0.13,-0.10,0.11,-0.00,-0.01,-0.03
3.884,0.13,-0.10,0.11,0.00,-0.00,-0.02
3.887,0.07,-0.08,0.08,0.00,-0.00,-0.02
3.888,0.07,-0.08,0.08,0.00,-0.01,-0.02
3.889,0.07,-0.08,0.08,0.01,-0.01,-0.03
3.889,0.04,-0.05,0.08,0.01,-0.01,-0.03
3.89,0.04,-0.05,0.08,0.01,-0.01,-0.02
3.892,0.04,-0.05,0.08,0.01,-0.00,-0.02
3.892,-0.02,-0.04,0.06,0.01,-0.00,-0.02
3.894,-0.02,-0.04,0.06,0.01,-0.01,-0.02
3.896,-0.02,-0.04,0.06,0.01,-0.01,-0.02
3.896,-0.05,-0.02,0.04,0.01,-0.01,-0.02
3.898,-0.05,-0.02,0.04,0.01,-0.01,-0.02
3.906,-0.05,-0.02,0.04,0.01,-0.01,-0.02
3.907,-0.09,-0.00,0.02,0.01,-0.01,-0.02
3.907,-0.09,-0.00,0.02,0.01,-0.01,-0.02
3.907,-0.09,-0.00,0.02,0.01,-0.01,-0.02
3.908,-0.09,-0.02,-0.00,0.01,-0.01,-0.02
3.908,-0.09,-0.02,-0.00,0.01,-0.02,-0.02
3.908,-0.09,-0.02,-0.00,0.01,-0.02,-0.02
3.909,-0.12,-0.02,-0.04,0.01,-0.02,-0.02
3.91,-0.12,-0.02,-0.04,0.01,-0.02,-0.02
3.912,-0.12,-0.02,-0.04,0.01,-0.02,-0.02
3.913,-0.11,-0.03,-0.07,0.01,-0.02,-0.02
3.914,-0.11,-0.03,-0.07,0.01,-0.02,-0.02
3.917,-0.11,-0.03,-0.07,0.01,-0.02,-0.02
3.917,-0.13,-0.04,-0.10,0.01,-0.02,-0.02
3.918,-0.13,-0.04,-0.10,0.01,-0.03,-0.01
3.92,-0.13,-0.04,-0.10,0.01,-0.03,-0.01
3.92,-0.12,-0.06,-0.12,0.01,-0.03,-0.01
3.922,-0.12,-0.06,-0.12,0.01,-0.03,-0.02
3.924,-0.12,-0.06,-0.12,0.01,-0.03,-0.01
3.925,-0.11,-0.07,-0.14,0.01,-0.03,-0.01
3.926,-0.11,-0.07,-0.14,0.01,-0.03,-0.01
3.928,-0.11,-0.07,-0.14,0.01,-0.03,-0.01
3.928,-0.11,-0.08,-0.17,0.01,-0.03,-0.01
3.93,-0.11,-0.08,-0.17,0.01,-0.03,-0.01
3.932,-0.11,-0.08,-0.17,0.01,-0.03,-0.01
3.933,-0.09,-0.08,-0.20,0.01,-0.03,-0.01
3.934,-0.09,-0.08,-0.20,0.00,-0.03,-0.01
3.936,-0.09,-0.08,-0.20,0.00,-0.03,-0.01
3.937,-0.07,-0.09,-0.21,0.00,-0.03,-0.01
3.938,-0.07,-0.09,-0.21,0.00,-0.03,-0.01
3.94,-0.07,-0.09,-0.21,-0.00,-0.03,-0.00
3.941,-0.06,-0.09,-0.23,-0.00,-0.03,-0.00
3.942,-0.06,-0.09,-0.23,-0.00,-0.03,-0.00
3.944,-0.06,-0.09,-0.23,-0.01,-0.03,-0.00
3.945,-0.04,-0.09,-0.24,-0.01,-0.03,-0.00
3.946,-0.04,-0.09,-0.24,-0.01,-0.02,-0.00
3.948,-0.04,-0.09,-0.24,-0.01,-0.03,-0.00
3.948,-0.01,-0.09,-0.23,-0.01,-0.03,-0.00
3.95,-0.01,-0.09,-0.23,-0.01,-0.02,0.00
3.952,-0.01,-0.09,-0.23,-0.01,-0.02,-0.00
3.952,0.01,-0.07,-0.22,-0.01,-0.02,-0.00
3.954,0.01,-0.07,-0.22,-0.01,-0.02,0.00
3.956,0.01,-0.07,-0.22,-0.02,-0.02,0.00
3.957,0.05,-0.08,-0.19,-0.02,-0.02,0.00
3.958,0.05,-0.08,-0.19,-0.02,-0.02,0.00
3.96,0.05,-0.08,-0.19,-0.02,-0.02,0.00
3.96,0.08,-0.07,-0.17,-0.02,-0.02,0.00
3.961,0.08,-0.07,-0.17,-0.02,-0.02,0.00
3.964,0.08,-0.07,-0.17,-0.02,-0.02,0.00
3.964,0.13,-0.07,-0.15,-0.02,-0.02,0.00
3.965,0.13,-0.07,-0.15,-0.02,-0.02,-0.00
3.968,0.13,-0.07,-0.15,-0.02,-0.02,0.00
3.968,0.16,-0.07,-0.12,-0.02,-0.02,0.00
3.97,0.16,-0.07,-0.12,-0.02,-0.02,0.00
3.972,0.16,-0.07,-0.12,-0.02,-0.02,-0.00
3.972,0.17,-0.07,-0.07,-0.02,-0.02,-0.00
3.974,0.17,-0.07,-0.07,-0.02,-0.02,-0.00
3.976,0.17,-0.07,-0.07,-0.02,-0.02,-0.00
3.976,0.20,-0.07,-0.04,-0.02,-0.02,-0.00
3.977,0.20,-0.07,-0.04,-0.02,-0.02,-0.00
3.98,0.20,-0.07,-0.04,-0.02,-0.02,-0.01
3.98,0.20,-0.05,0.00,-0.02,-0.02,-0.01
3.981,0.20,-0.05,0.00,-0.02,-0.02,-0.01
3.99,0.20,-0.05,0.00,-0.02,-0.02,-0.01
3.991,0.20,-0.04,0.05,-0.02,-0.02,-0.01
3.992,0.20,-0.04,0.05,-0.02,-0.01,-0.01
3.992,0.20,-0.04,0.05,-0.02,-0.01,-0.01
3.992,0.20,0.01,0.08,-0.02,-0.01,-0.01
3.993,0.20,0.01,0.08,-0.01,-0.01,-0.01
3.993,0.20,0.01,0.08,-0.01,-0.01,-0.01
3.993,0.19,0.02,0.10,-0.01,-0.01,-0.01
3.994,0.19,0.02,0.10,-0.01,-0.01,-0.01
3.996,0.19,0.02,0.10,-0.01,-0.00,-0.01
3.996,0.20,0.04,0.12,-0.01,-0.00,-0.01
3.997,0.20,0.04,0.12,-0.01,-0.00,-0.01
4.003,0.20,0.04,0.12,-0.01,-0.00,-0.01
4.004,0.17,0.07,0.12,-0.01,-0.00,-0.01
4.005,0.17,0.07,0.12,-0.00,-0.00,-0.01
4.005,0.17,0.07,0.12,-0.00,0.00,-0.01
4.005,0.15,0.09,0.11,-0.00,0.00,-0.01
4.006,0.15,0.09,0.11,-0.00,-0.00,-0.02
4.008,0.15,0.09,0.11,0.00,-0.00,-0.02
4.008,0.16,0.08,0.09,0.00,-0.00,-0.02
4.009,0.16,0.08,0.09,0.00,-0.00,-0.01
4.012,0.16,0.08,0.09,0.00,0.00,-0.02
4.012,0.14,0.07,0.06,0.00,0.00,-0.02
4.013,0.14,0.07,0.06,0.01,-0.00,-0.02
4.016,0.14,0.07,0.06,0.00,0.00,-0.02
4.016,0.11,0.05,0.04,0.00,0.00,-0.02
4.018,0.11,0.05,0.04,0.00,0.00,-0.02
4.02,0.11,0.05,0.04,0.00,-0.00,-0.02
4.02,0.11,0.03,0.00,0.00,-0.00,-0.02
4.022,0.11,0.03,0.00,0.00,0.00,-0.02
4.024,0.11,0.03,0.00,0.00,0.00,-0.02
4.024,0.10,0.00,-0.03,0.00,0.00,-0.02
4.025,0.10,0.00,-0.03,-0.00,-0.00,-0.02
4.028,0.10,0.00,-0.03,-0.00,0.00,-0.02
4.028,0.08,-0.02,-0.06,-0.00,0.00,-0.02
4.029,0.08,-0.02,-0.06,-0.00,-0.00,-0.02
4.032,0.08,-0.02,-0.06,0.00,-0.00,-0.02
4.032,0.07,-0.04,-0.07,0.00,-0.00,-0.02
4.034,0.07,-0.04,-0.07,-0.00,-0.00,-0.02
4.036,0.07,-0.04,-0.07,-0.01,-0.01,-0.02
4.036,0.07,-0.06,-0.09,-0.01,-0.01,-0.02
4.037,0.07,-0.06,-0.09,-0.01,-0.01,-0.02
4.04,0.07,-0.06,-0.09,-0.01,-0.01,-0.02
4.04,0.04,-0.07,-0.09,-0.01,-0.01,-0.02
4.041,0.04,-0.07,-0.09,-0.01,-0.01,-0.02
4.044,0.04,-0.07,-0.09,-0.01,-0.01,-0.02
4.044,0.03,-0.06,-0.09,-0.01,-0.01,-0.02
4.045,0.03,-0.06,-0.09,-0.01,-0.01,-0.02
4.047,0.03,-0.06,-0.09,-0.01,-0.02,-0.02
4.048,0.03,-0.08,-0.08,-0.01,-0.02,-0.02
4.05,0.03,-0.08,-0.08,-0.01,-0.02,-0.02
4.052,0.02,-0.08,-0.06,-0.01,-0.02,-0.02
4.052,0.02,-0.08,-0.06,-0.01,-0.02,-0.02
4.053,0.02,-0.08,-0.06,-0.01,-0.02,-0.02
