
time,ax,ay,az,wx,wy,wz
0.046023,0.0000,0.0000,0.0000,0.0000,0.0000,0.0000
0.046350,0.0000,0.0000,0.0000,-0.0458,0.1196,-0.0610
0.046658,-0.4189,0.0378,-0.7218,-0.0458,0.1196,-0.0610
0.046959,-0.4189,0.0378,-0.7218,-0.0458,0.1196,-0.0610
0.047185,-0.4189,0.0378,-0.7218,-0.0421,0.1367,-0.0573
0.047392,-0.5217,0.0739,-0.6977,-0.0421,0.1367,-0.0573
0.047615,-0.5217,0.0739,-0.6977,-0.0421,0.1367,-0.0573
0.047832,-0.5217,0.0739,-0.6977,-0.0396,0.1514,-0.0525
0.048117,-0.5738,0.1098,-0.6285,-0.0396,0.1514,-0.0525
0.048357,-0.5738,0.1098,-0.6285,-0.0396,0.1514,-0.0525
0.048570,-0.5738,0.1098,-0.6285,-0.0348,0.1622,-0.0452
0.048796,-0.6194,0.1165,-0.6182,-0.0348,0.1622,-0.0452
0.049054,-0.6194,0.1165,-0.6182,-0.0348,0.1622,-0.0452
0.049319,-0.6194,0.1165,-0.6182,-0.0298,0.1709,-0.0366
0.049596,-0.5989,0.1061,-0.5609,-0.0298,0.1709,-0.0366
0.049837,-0.5989,0.1061,-0.5609,-0.0298,0.1709,-0.0366
0.050043,-0.5989,0.1061,-0.5609,-0.0238,0.1782,-0.0268
0.050251,-0.5872,0.1055,-0.5295,-0.0238,0.1782,-0.0268
0.050473,-0.5872,0.1055,-0.5295,-0.0238,0.1782,-0.0268
0.050708,-0.5872,0.1055,-0.5295,-0.0164,0.1880,-0.0195
0.050922,-0.5781,0.0760,-0.4762,-0.0164,0.1880,-0.0195
0.051151,-0.5781,0.0760,-0.4762,-0.0164,0.1880,-0.0195
0.051385,-0.5781,0.0760,-0.4762,-0.0078,0.1965,-0.0110
0.051598,-0.5917,0.0901,-0.4497,-0.0078,0.1965,-0.0110
0.051814,-0.5917,0.0901,-0.4497,-0.0078,0.1965,-0.0110
0.052021,-0.5917,0.0901,-0.4497,0.0019,0.2075,-0.0037
0.052319,-0.5674,0.0552,-0.4512,0.0019,0.2075,-0.0037
0.052544,-0.5674,0.0552,-0.4512,0.0019,0.2075,-0.0037
0.052779,-0.5674,0.0552,-0.4512,0.0117,0.2197,0.0037
0.052995,-0.5489,0.0024,-0.4217,0.0117,0.2197,0.0037
0.053219,-0.5489,0.0024,-0.4217,0.0117,0.2197,0.0037
0.053424,-0.5501,-0.0033,-0.3904,0.0117,0.2197,0.0037
0.053638,-0.5501,-0.0033,-0.3904,0.0227,0.2295,0.0098
0.053852,-0.5501,-0.0033,-0.3904,0.0227,0.2295,0.0098
0.054068,-0.5501,-0.0033,-0.3904,0.0300,0.2417,0.0135
0.054281,-0.5559,-0.0238,-0.3755,0.0300,0.2417,0.0135
0.054497,-0.5559,-0.0238,-0.3755,0.0300,0.2417,0.0135
0.054723,-0.5559,-0.0238,-0.3755,0.0410,0.2478,0.0208
0.054933,-0.5645,-0.0422,-0.3678,0.0410,0.2478,0.0208
0.055148,-0.5645,-0.0422,-0.3678,0.0410,0.2478,0.0208
0.055354,-0.5645,-0.0422,-0.3678,0.0495,0.2575,0.0245
0.055552,-0.5472,-0.0726,-0.3741,0.0495,0.2575,0.0245
0.055777,-0.5472,-0.0726,-0.3741,0.0495,0.2575,0.0245
0.055988,-0.5472,-0.0726,-0.3741,0.0582,0.2600,0.0293
0.056288,-0.5191,-0.1308,-0.3784,0.0582,0.2600,0.0293
0.056508,-0.5191,-0.1308,-0.3784,0.0582,0.2600,0.0293
0.056714,-0.5191,-0.1308,-0.3784,0.0654,0.2600,0.0305
0.056919,-0.4662,-0.1372,-0.3817,0.0654,0.2600,0.0305
0.083152,-0.4662,-0.1372,-0.3817,0.0715,0.2600,0.0342
0.083769,-0.4662,-0.1372,-0.3817,0.0715,0.2600,0.0342
0.084463,-0.3998,-0.2067,-0.4330,0.0715,0.2600,0.0342
0.085209,-0.3998,-0.2067,-0.4330,0.0764,0.2577,0.0355
0.085754,-0.3998,-0.2067,-0.4330,0.0764,0.2577,0.0355
0.086194,-0.3947,-0.2138,-0.4520,0.0764,0.2577,0.0355
0.086765,-0.3658,-0.2307,-0.4949,0.0764,0.2577,0.0355
0.087425,-0.3658,-0.2307,-0.4949,0.0764,0.2577,0.0355
0.087845,-0.3658,-0.2307,-0.4949,0.0764,0.2527,0.0380
0.088408,-0.3658,-0.2307,-0.4949,0.0802,0.2478,0.0392
0.088886,-0.3658,-0.2307,-0.4949,0.0802,0.2478,0.0392
0.089287,-0.3347,-0.2478,-0.5450,0.0802,0.2478,0.0392
0.089886,-0.3347,-0.2478,-0.5450,0.0802,0.2478,0.0392
0.090274,-0.3347,-0.2478,-0.5450,0.0802,0.2442,0.0380
0.090754,-0.3008,-0.2397,-0.5830,0.0802,0.2442,0.0380
0.091316,-0.3008,-0.2397,-0.5830,0.0777,0.2393,0.0367
0.091828,-0.3008,-0.2397,-0.5830,0.0777,0.2393,0.0367
0.092309,-0.2938,-0.2238,-0.5830,0.0777,0.2393,0.0367
0.092919,-0.2938,-0.2238,-0.5830,0.0777,0.2393,0.0367
0.093317,-0.2938,-0.2238,-0.5830,0.0752,0.2332,0.0355
0.093833,-0.2739,-0.2225,-0.6092,0.0752,0.2332,0.0355
0.094451,-0.2739,-0.2225,-0.6092,0.0752,0.2332,0.0355
0.094857,-0.2739,-0.2225,-0.6092,0.0703,0.2270,0.0318
0.095268,-0.2631,-0.2549,-0.6415,0.0703,0.2270,0.0318
0.095868,-0.2631,-0.2549,-0.6415,0.0703,0.2270,0.0318
0.096360,-0.2631,-0.2549,-0.6415,0.0679,0.2185,0.0293
0.096866,-0.2078,-0.2833,-0.6918,0.0679,0.2185,0.0293
0.097498,-0.2078,-0.2833,-0.6918,0.0679,0.2185,0.0293
0.097891,-0.2078,-0.2833,-0.6918,0.0617,0.2087,0.0257
0.098356,-0.1888,-0.2867,-0.7462,0.0617,0.2087,0.0257
0.098952,-0.1888,-0.2867,-0.7462,0.0617,0.2087,0.0257
0.099388,-0.1888,-0.2867,-0.7462,0.0557,0.1990,0.0195
0.099910,-0.1929,-0.3049,-0.8076,0.0557,0.1990,0.0195
0.100619,-0.1929,-0.3049,-0.8076,0.0557,0.1990,0.0195
0.101025,-0.1929,-0.3049,-0.8076,0.0447,0.1880,0.0147
0.101450,-0.0994,-0.3029,-0.8501,0.0447,0.1880,0.0147
0.102023,-0.0994,-0.3029,-0.8501,0.0447,0.1880,0.0147
0.102414,-0.0994,-0.3029,-0.8501,0.0337,0.1782,0.0085
0.102809,-0.1221,-0.3516,-0.8947,0.0337,0.1782,0.0085
0.103386,-0.1221,-0.3516,-0.8947,0.0337,0.1782,0.0085
0.103807,-0.1221,-0.3516,-0.8947,0.0252,0.1684,0.0025
0.104319,-0.1130,-0.3790,-0.9353,0.0252,0.1684,0.0025
0.104899,-0.1130,-0.3790,-0.9353,0.0252,0.1684,0.0025
0.105305,-0.1130,-0.3790,-0.9353,0.0154,0.1587,-0.0060
0.105700,-0.1111,-0.4002,-0.9711,0.0154,0.1587,-0.0060
0.106318,-0.1111,-0.4002,-0.9711,0.0154,0.1587,-0.0060
0.106729,-0.1111,-0.4002,-0.9711,0.0092,0.1502,-0.0122
0.107290,-0.1274,-0.4292,-0.9518,0.0092,0.1502,-0.0122
0.107922,-0.1274,-0.4292,-0.9518,0.0092,0.1502,-0.0122
0.108423,-0.1274,-0.4292,-0.9518,0.0007,0.1415,-0.0183
0.108857,-0.1306,-0.4341,-0.9487,0.0007,0.1415,-0.0183
0.109467,-0.1306,-0.4341,-0.9487,0.0007,0.1415,-0.0183
0.110008,-0.1306,-0.4341,-0.9487,-0.0054,0.1367,-0.0256
0.110431,-0.1000,-0.4477,-0.9258,-0.0054,0.1367,-0.0256
0.111001,-0.1000,-0.4477,-0.9258,-0.0054,0.1367,-0.0256
0.111389,-0.1000,-0.4477,-0.9258,-0.0091,0.1294,-0.0330
0.111785,-0.1066,-0.4592,-0.9397,-0.0091,0.1294,-0.0330
0.112440,-0.1066,-0.4592,-0.9397,-0.0091,0.1294,-0.0330
0.112834,-0.1066,-0.4592,-0.9397,-0.0140,0.1282,-0.0428
0.113231,-0.1031,-0.4567,-0.9448,-0.0140,0.1282,-0.0428
0.113927,-0.1031,-0.4567,-0.9448,-0.0140,0.1282,-0.0428
0.114345,-0.1031,-0.4567,-0.9448,-0.0151,0.1294,-0.0525
0.114732,-0.1493,-0.4251,-0.9539,-0.0151,0.1294,-0.0525
0.115299,-0.1493,-0.4251,-0.9539,-0.0151,0.1294,-0.0525
0.115786,-0.1493,-0.4251,-0.9539,-0.0176,0.1342,-0.0598
0.116350,-0.1984,-0.4005,-0.9878,-0.0176,0.1342,-0.0598
0.116937,-0.1984,-0.4005,-0.9878,-0.0176,0.1342,-0.0598
0.117358,-0.1984,-0.4005,-0.9878,-0.0213,0.1452,-0.0648
0.117911,-0.2919,-0.3420,-1.0018,-0.0213,0.1452,-0.0648
0.118511,-0.2919,-0.3420,-1.0018,-0.0213,0.1452,-0.0648
0.118907,-0.2919,-0.3420,-1.0018,-0.0261,0.1587,-0.0672
0.119374,-0.3729,-0.2675,-1.0327,-0.0261,0.1587,-0.0672
0.119985,-0.3729,-0.2675,-1.0327,-0.0261,0.1587,-0.0672
0.120480,-0.3729,-0.2675,-1.0327,-0.0348,0.1733,-0.0672
0.120974,-0.4276,-0.2449,-1.0787,-0.0348,0.1733,-0.0672
0.121572,-0.4276,-0.2449,-1.0787,-0.0348,0.1733,-0.0672
0.121981,-0.4276,-0.2449,-1.0787,-0.0469,0.1880,-0.0672
0.122395,-0.4989,-0.2181,-1.1097,-0.0469,0.1880,-0.0672
0.122974,-0.4989,-0.2181,-1.1097,-0.0469,0.1880,-0.0672
0.123401,-0.4989,-0.2181,-1.1097,-0.0591,0.2027,-0.0635
0.123875,-0.5526,-0.1841,-1.1046,-0.0591,0.2027,-0.0635
0.124546,-0.5526,-0.1841,-1.1046,-0.0591,0.2027,-0.0635
0.124968,-0.5526,-0.1841,-1.1046,-0.0701,0.2185,-0.0573
0.125391,-0.6008,-0.1728,-1.0837,-0.0701,0.2185,-0.0573
0.125981,-0.6008,-0.1728,-1.0837,-0.0701,0.2185,-0.0573
0.126391,-0.6008,-0.1728,-1.0837,-0.0836,0.2344,-0.0500
0.126933,-0.6267,-0.1215,-1.0619,-0.0836,0.2344,-0.0500
0.127489,-0.6267,-0.1215,-1.0619,-0.0836,0.2344,-0.0500
0.127877,-0.6267,-0.1215,-1.0619,-0.0971,0.2490,-0.0440
0.128442,-0.6382,-0.0958,-1.0141,-0.0971,0.2490,-0.0440
0.129028,-0.6382,-0.0958,-1.0141,-0.0971,0.2490,-0.0440
0.129423,-0.6382,-0.0958,-1.0141,-0.1106,0.2612,-0.0353
0.129936,-0.6502,-0.0749,-0.9522,-0.1106,0.2612,-0.0353
0.130511,-0.6502,-0.0749,-0.9522,-0.1106,0.2612,-0.0353
0.130899,-0.6502,-0.0749,-0.9522,-0.1214,0.2735,-0.0268
0.131407,-0.6770,-0.0608,-0.9096,-0.1214,0.2735,-0.0268
0.131988,-0.6770,-0.0608,-0.9096,-0.1214,0.2735,-0.0268
0.132543,-0.6770,-0.0608,-0.9096,-0.1349,0.2845,-0.0170
0.133094,-0.6833,-0.0654,-0.8309,-0.1349,0.2845,-0.0170
0.133718,-0.6833,-0.0654,-0.8309,-0.1349,0.2845,-0.0170
0.134123,-0.6833,-0.0654,-0.8309,-0.1471,0.2907,-0.0098
0.134592,-0.6933,-0.0508,-0.7803,-0.1471,0.2907,-0.0098
0.135414,-0.6933,-0.0508,-0.7803,-0.1471,0.2907,-0.0098
0.135848,-0.6933,-0.0508,-0.7803,-0.1594,0.2967,0.0012
0.136422,-0.6841,-0.0498,-0.7218,-0.1594,0.2967,0.0012
0.137047,-0.6841,-0.0498,-0.7218,-0.1594,0.2967,0.0012
0.137448,-0.6841,-0.0498,-0.7218,-0.1716,0.3028,0.0062
0.137835,-0.6579,-0.0656,-0.6713,-0.1716,0.3028,0.0062
0.138443,-0.6579,-0.0656,-0.6713,-0.1716,0.3028,0.0062
0.138853,-0.6579,-0.0656,-0.6713,-0.1814,0.3065,0.0147
0.139396,-0.6633,-0.0980,-0.6129,-0.1814,0.3065,0.0147
0.163327,-0.6633,-0.0980,-0.6129,-0.1814,0.3065,0.0147
0.164562,-0.6633,-0.0980,-0.6129,-0.1936,0.3077,0.0245
0.165783,-0.6368,-0.1180,-0.5577,-0.1936,0.3077,0.0245
0.166685,-0.6368,-0.1180,-0.5577,-0.1936,0.3077,0.0245
0.167314,-0.6368,-0.1180,-0.5577,-0.2046,0.3114,0.0318
0.167958,-0.5980,-0.1425,-0.4637,-0.2046,0.3114,0.0318
0.168876,-0.5980,-0.1425,-0.4637,-0.2046,0.3114,0.0318
0.169514,-0.5980,-0.1425,-0.4637,-0.2131,0.3125,0.0355
0.170234,-0.5621,-0.1496,-0.3755,-0.2131,0.3125,0.0355
0.171035,-0.5621,-0.1496,-0.3755,-0.2131,0.3125,0.0355
0.171647,-0.5621,-0.1496,-0.3755,-0.2192,0.3125,0.0403
0.172321,-0.5206,-0.1942,-0.2357,-0.2192,0.3125,0.0403
0.173130,-0.5206,-0.1942,-0.2357,-0.2192,0.3125,0.0403
0.173728,-0.5206,-0.1942,-0.2357,-0.2241,0.3102,0.0452
0.174441,-0.4571,-0.2001,-0.1361,-0.2241,0.3102,0.0452
0.175269,-0.4571,-0.2001,-0.1361,-0.2241,0.3102,0.0452
0.175888,-0.4571,-0.2001,-0.1361,-0.2302,0.3040,0.0477
0.176728,-0.3864,-0.2000,-0.0417,-0.2302,0.3040,0.0477
0.177611,-0.3864,-0.2000,-0.0417,-0.2302,0.3040,0.0477
0.178233,-0.3864,-0.2000,-0.0417,-0.2314,0.2943,0.0500
0.178947,-0.3083,-0.2422,0.0631,-0.2314,0.2943,0.0500
0.179687,-0.3083,-0.2422,0.0631,-0.2314,0.2943,0.0500
0.180387,-0.3083,-0.2422,0.0631,-0.2314,0.2820,0.0500
0.181157,-0.2586,-0.2621,0.1381,-0.2314,0.2820,0.0500
0.182024,-0.2586,-0.2621,0.1381,-0.2314,0.2820,0.0500
0.182675,-0.2586,-0.2621,0.1381,-0.2289,0.2662,0.0465
0.183492,-0.1942,-0.2663,0.1980,-0.2289,0.2662,0.0465
0.184323,-0.1942,-0.2663,0.1980,-0.2289,0.2662,0.0465
0.184973,-0.1942,-0.2663,0.1980,-0.2266,0.2478,0.0415
0.185579,-0.1637,-0.2708,0.2729,-0.2266,0.2478,0.0415
0.186434,-0.1637,-0.2708,0.2729,-0.2266,0.2478,0.0415
0.187031,-0.1637,-0.2708,0.2729,-0.2241,0.2295,0.0380
0.187751,-0.1697,-0.3022,0.3159,-0.2241,0.2295,0.0380
0.188635,-0.1697,-0.3022,0.3159,-0.2241,0.2295,0.0380
0.189251,-0.1697,-0.3022,0.3159,-0.2204,0.2100,0.0342
0.190096,-0.1264,-0.3324,0.3118,-0.2204,0.2100,0.0342
0.190870,-0.1264,-0.3324,0.3118,-0.2204,0.2100,0.0342
0.191491,-0.1264,-0.3324,0.3118,-0.2156,0.1892,0.0269
0.192200,-0.0997,-0.3437,0.3186,-0.2156,0.1892,0.0269
0.193059,-0.0997,-0.3437,0.3186,-0.2156,0.1892,0.0269
0.193668,-0.0997,-0.3437,0.3186,-0.2094,0.1660,0.0220
0.194646,-0.1025,-0.3499,0.3045,-0.2094,0.1660,0.0220
0.195422,-0.1025,-0.3499,0.3045,-0.2094,0.1660,0.0220
0.196016,-0.1025,-0.3499,0.3045,-0.2046,0.1440,0.0159
0.196849,-0.0917,-0.3743,0.3222,-0.2046,0.1440,0.0159
0.197591,-0.0917,-0.3743,0.3222,-0.2046,0.1440,0.0159
0.198195,-0.0917,-0.3743,0.3222,-0.1984,0.1220,0.0122
0.199009,-0.1122,-0.3637,0.3050,-0.1984,0.1220,0.0122
0.199801,-0.1122,-0.3637,0.3050,-0.1984,0.1220,0.0122
0.200508,-0.1122,-0.3637,0.3050,-0.1936,0.0964,0.0074
0.201243,-0.1590,-0.3274,0.3060,-0.1936,0.0964,0.0074
0.202026,-0.1590,-0.3274,0.3060,-0.1936,0.0964,0.0074
0.202750,-0.1590,-0.3274,0.3060,-0.1874,0.0707,0.0025
0.203306,-0.1425,-0.3375,0.3350,-0.1874,0.0707,0.0025
0.204145,-0.1425,-0.3375,0.3350,-0.1874,0.0707,0.0025
0.204708,-0.1425,-0.3375,0.3350,-0.1826,0.0414,-0.0012
0.205215,-0.1932,-0.3714,0.3379,-0.1826,0.0414,-0.0012
0.205993,-0.1932,-0.3714,0.3379,-0.1826,0.0414,-0.0012
0.206496,-0.1932,-0.3714,0.3379,-0.1777,0.0109,-0.0048
0.206999,-0.2343,-0.3475,0.2998,-0.1777,0.0109,-0.0048
0.207775,-0.2343,-0.3475,0.2998,-0.1777,0.0109,-0.0048
0.208394,-0.2343,-0.3475,0.2998,-0.1764,-0.0234,-0.0073
0.209065,-0.2469,-0.3712,0.2826,-0.1764,-0.0234,-0.0073
0.209830,-0.2469,-0.3712,0.2826,-0.1764,-0.0234,-0.0073
0.210322,-0.2469,-0.3712,0.2826,-0.1764,-0.0588,-0.0085
0.210822,-0.2676,-0.3784,0.1963,-0.1764,-0.0588,-0.0085
0.211529,-0.2676,-0.3784,0.1963,-0.1764,-0.0588,-0.0085
0.212122,-0.2676,-0.3784,0.1963,-0.1789,-0.0930,-0.0098
0.212836,-0.2903,-0.3395,0.1319,-0.1789,-0.0930,-0.0098
0.213597,-0.2903,-0.3395,0.1319,-0.1789,-0.0930,-0.0098
0.214551,-0.2903,-0.3395,0.1319,-0.1826,-0.1224,-0.0110
0.215598,-0.3312,-0.3395,0.0843,-0.1826,-0.1224,-0.0110
0.216368,-0.3312,-0.3395,0.0843,-0.1826,-0.1224,-0.0110
0.216882,-0.3312,-0.3395,0.0843,-0.1899,-0.1492,-0.0098
0.217382,-0.3633,-0.3060,0.0081,-0.1899,-0.1492,-0.0098
0.218092,-0.3633,-0.3060,0.0081,-0.1899,-0.1492,-0.0098
0.218622,-0.3633,-0.3060,0.0081,-0.1972,-0.1699,-0.0098
0.219268,-0.3943,-0.3081,-0.0501,-0.1972,-0.1699,-0.0098
0.220243,-0.3943,-0.3081,-0.0501,-0.1972,-0.1699,-0.0098
0.220780,-0.3943,-0.3081,-0.0501,-0.2058,-0.1871,-0.0048
0.221365,-0.3861,-0.2568,-0.1040,-0.2058,-0.1871,-0.0048
0.221978,-0.3861,-0.2568,-0.1040,-0.2058,-0.1871,-0.0048
0.222424,-0.3861,-0.2568,-0.1040,-0.2144,-0.2005,0.0025
0.222957,-0.3706,-0.2198,-0.1210,-0.2144,-0.2005,0.0025
0.223566,-0.3706,-0.2198,-0.1210,-0.2144,-0.2005,0.0025
0.224001,-0.3706,-0.2198,-0.1210,-0.2254,-0.2139,0.0074
0.224639,-0.3674,-0.1777,-0.1271,-0.2254,-0.2139,0.0074
0.225188,-0.3674,-0.1777,-0.1271,-0.2254,-0.2139,0.0074
0.225600,-0.3674,-0.1777,-0.1271,-0.2339,-0.2237,0.0122
0.226127,-0.3318,-0.1409,-0.1721,-0.2339,-0.2237,0.0122
0.226818,-0.3318,-0.1409,-0.1721,-0.2339,-0.2237,0.0122
0.227465,-0.3318,-0.1409,-0.1721,-0.2437,-0.2310,0.0232
0.230100,-0.2749,-0.1130,-0.1741,-0.2437,-0.2310,0.0232
0.231225,-0.2749,-0.1130,-0.1741,-0.2437,-0.2310,0.0232
0.231909,-0.2749,-0.1130,-0.1741,-0.2546,-0.2299,0.0293
0.232560,-0.2119,-0.1262,-0.2461,-0.2546,-0.2299,0.0293
0.233265,-0.2119,-0.1262,-0.2461,-0.2546,-0.2299,0.0293
0.233710,-0.2119,-0.1262,-0.2461,-0.2644,-0.2274,0.0342
0.234153,-0.1680,-0.0803,-0.2811,-0.2644,-0.2274,0.0342
0.234823,-0.1680,-0.0803,-0.2811,-0.2644,-0.2274,0.0342
0.235233,-0.1680,-0.0803,-0.2811,-0.2742,-0.2152,0.0415
0.235816,-0.0914,-0.0695,-0.3003,-0.2742,-0.2152,0.0415
0.236423,-0.0914,-0.0695,-0.3003,-0.2742,-0.2152,0.0415
0.236847,-0.0914,-0.0695,-0.3003,-0.2827,-0.2005,0.0490
0.237272,-0.0378,-0.0346,-0.3074,-0.2827,-0.2005,0.0490
0.237686,-0.0378,-0.0346,-0.3074,-0.2827,-0.2005,0.0490
0.238072,-0.0378,-0.0346,-0.3074,-0.2925,-0.1785,0.0550
0.238631,0.0220,-0.0454,-0.2905,-0.2925,-0.1785,0.0550
0.239151,0.0220,-0.0454,-0.2905,-0.2925,-0.1785,0.0550
0.239539,0.0220,-0.0454,-0.2905,-0.3011,-0.1554,0.0600
0.240116,0.0619,-0.0271,-0.2997,-0.3011,-0.1554,0.0600
0.240699,0.0619,-0.0271,-0.2997,-0.3011,-0.1554,0.0600
0.241129,0.0619,-0.0271,-0.2997,-0.3084,-0.1284,0.0648
0.241631,0.0743,-0.0177,-0.2759,-0.3084,-0.1284,0.0648
0.242159,0.0743,-0.0177,-0.2759,-0.3084,-0.1284,0.0648
0.242586,0.0743,-0.0177,-0.2759,-0.3132,-0.1004,0.0697
0.243053,0.1221,-0.0400,-0.2471,-0.3132,-0.1004,0.0697
0.243559,0.1221,-0.0400,-0.2471,-0.3132,-0.1004,0.0697
0.243980,0.1221,-0.0400,-0.2471,-0.3169,-0.0711,0.0720
0.244575,0.1829,-0.0790,-0.2014,-0.3169,-0.0711,0.0720
0.245085,0.1829,-0.0790,-0.2014,-0.3169,-0.0711,0.0720
0.245483,0.1829,-0.0790,-0.2014,-0.3194,-0.0404,0.0745
0.246000,0.2093,-0.1216,-0.1848,-0.3194,-0.0404,0.0745
0.246622,0.2093,-0.1216,-0.1848,-0.3194,-0.0404,0.0745
0.247016,0.2093,-0.1216,-0.1848,-0.3194,-0.0111,0.0745
0.247420,0.2688,-0.1241,-0.1392,-0.3194,-0.0111,0.0745
0.248027,0.2688,-0.1241,-0.1392,-0.3194,-0.0111,0.0745
0.248615,0.2688,-0.1241,-0.1392,-0.3169,0.0181,0.0758
0.249056,0.2884,-0.1562,-0.0647,-0.3169,0.0181,0.0758
0.249660,0.2884,-0.1562,-0.0647,-0.3169,0.0181,0.0758
0.250059,0.2884,-0.1562,-0.0647,-0.3145,0.0462,0.0758
0.250605,0.2834,-0.2263,-0.0124,-0.3145,0.0462,0.0758
0.251191,0.2834,-0.2263,-0.0124,-0.3145,0.0462,0.0758
0.251609,0.2834,-0.2263,-0.0124,-0.3121,0.0719,0.0758
0.252206,0.2769,-0.2010,0.0536,-0.3121,0.0719,0.0758
0.252772,0.2769,-0.2010,0.0536,-0.3121,0.0719,0.0758
0.253175,0.2769,-0.2010,0.0536,-0.3035,0.0976,0.0745
0.253689,0.3029,-0.2292,0.1066,-0.3035,0.0976,0.0745
0.254286,0.3029,-0.2292,0.1066,-0.3035,0.0976,0.0745
0.254696,0.3029,-0.2292,0.1066,-0.2937,0.1196,0.0758
0.255248,0.3072,-0.2275,0.1899,-0.2937,0.1196,0.0758
0.256611,0.3072,-0.2275,0.1899,-0.2937,0.1196,0.0758
0.257037,0.3072,-0.2275,0.1899,-0.2839,0.1404,0.0733
0.257572,0.3144,-0.2568,0.2375,-0.2839,0.1404,0.0733
0.258116,0.3144,-0.2568,0.2375,-0.2839,0.1404,0.0733
0.258527,0.3144,-0.2568,0.2375,-0.2717,0.1574,0.0720
0.259105,0.3678,-0.2349,0.2922,-0.2717,0.1574,0.0720
0.259732,0.3678,-0.2349,0.2922,-0.2717,0.1574,0.0720
0.260268,0.3678,-0.2349,0.2922,-0.2584,0.1697,0.0697
0.260820,0.3755,-0.2699,0.3020,-0.2584,0.1697,0.0697
0.261455,0.3755,-0.2699,0.3020,-0.2584,0.1697,0.0697
0.261848,0.3755,-0.2699,0.3020,-0.2474,0.1819,0.0648
0.262353,0.4103,-0.2763,0.3197,-0.2474,0.1819,0.0648
0.262930,0.4103,-0.2763,0.3197,-0.2474,0.1819,0.0648
0.263339,0.4103,-0.2763,0.3197,-0.2339,0.1917,0.0587
0.263760,0.4658,-0.2837,0.2936,-0.2339,0.1917,0.0587
0.264578,0.4658,-0.2837,0.2936,-0.2339,0.1917,0.0587
0.265029,0.4658,-0.2837,0.2936,-0.2217,0.1990,0.0525
0.265602,0.4634,-0.3022,0.2675,-0.2217,0.1990,0.0525
0.266139,0.4634,-0.3022,0.2675,-0.2217,0.1990,0.0525
0.266539,0.4634,-0.3022,0.2675,-0.2069,0.2062,0.0440
0.267101,0.5045,-0.2641,0.2344,-0.2069,0.2062,0.0440
0.307129,0.5045,-0.2641,0.2344,-0.2069,0.2062,0.0440
0.307639,0.5045,-0.2641,0.2344,-0.1959,0.2124,0.0355
0.308315,0.5541,-0.2691,0.1934,-0.1959,0.2124,0.0355
0.309028,0.5541,-0.2691,0.1934,-0.1959,0.2124,0.0355
0.309448,0.5541,-0.2691,0.1934,-0.1874,0.2222,0.0269
0.309971,0.5411,-0.2760,0.1484,-0.1874,0.2222,0.0269
0.310550,0.5411,-0.2760,0.1484,-0.1874,0.2222,0.0269
0.310946,0.5411,-0.2760,0.1484,-0.1801,0.2320,0.0183
0.311440,0.5402,-0.2690,0.0583,-0.1801,0.2320,0.0183
0.311993,0.5402,-0.2690,0.0583,-0.1801,0.2320,0.0183
0.312500,0.5402,-0.2690,0.0583,-0.1752,0.2442,0.0073
0.312990,0.5744,-0.2679,0.0056,-0.1752,0.2442,0.0073
0.313435,0.5744,-0.2679,0.0056,-0.1752,0.2442,0.0073
0.313818,0.5744,-0.2679,0.0056,-0.1741,0.2540,-0.0036
0.314246,0.5778,-0.2484,-0.0439,-0.1741,0.2540,-0.0036
0.314859,0.5778,-0.2484,-0.0439,-0.1741,0.2540,-0.0036
0.315259,0.5778,-0.2484,-0.0439,-0.1741,0.2662,-0.0122
0.315653,0.5302,-0.2213,-0.1002,-0.1741,0.2662,-0.0122
0.316247,0.5302,-0.2213,-0.1002,-0.1741,0.2662,-0.0122
0.316674,0.5302,-0.2213,-0.1002,-0.1764,0.2760,-0.0195
0.317209,0.4875,-0.2092,-0.1203,-0.1764,0.2760,-0.0195
0.317790,0.4875,-0.2092,-0.1203,-0.1764,0.2760,-0.0195
0.318209,0.4875,-0.2092,-0.1203,-0.1826,0.2857,-0.0268
0.318683,0.4462,-0.1753,-0.1304,-0.1826,0.2857,-0.0268
0.319242,0.4462,-0.1753,-0.1304,-0.1826,0.2857,-0.0268
0.319644,0.4462,-0.1753,-0.1304,-0.1899,0.2930,-0.0318
0.320193,0.3883,-0.1582,-0.1056,-0.1899,0.2930,-0.0318
0.320768,0.3883,-0.1582,-0.1056,-0.1899,0.2930,-0.0318
0.321156,0.3883,-0.1582,-0.1056,-0.1972,0.2992,-0.0366
0.321749,0.3180,-0.1034,-0.1087,-0.1972,0.2992,-0.0366
0.322314,0.3180,-0.1034,-0.1087,-0.1972,0.2992,-0.0366
0.322725,0.3180,-0.1034,-0.1087,-0.2058,0.3040,-0.0390
0.323132,0.2016,-0.0882,-0.0838,-0.2058,0.3040,-0.0390
0.323701,0.2016,-0.0882,-0.0838,-0.2058,0.3040,-0.0390
0.324222,0.2016,-0.0882,-0.0838,-0.2156,0.3090,-0.0390
0.324739,0.1029,-0.0005,-0.0516,-0.2156,0.3090,-0.0390
0.325253,0.1029,-0.0005,-0.0516,-0.2156,0.3090,-0.0390
0.325640,0.1029,-0.0005,-0.0516,-0.2254,0.3138,-0.0366
0.326033,0.0023,0.0163,-0.0375,-0.2254,0.3138,-0.0366
0.326451,0.0023,0.0163,-0.0375,-0.2254,0.3138,-0.0366
0.326861,0.0023,0.0163,-0.0375,-0.2376,0.3162,-0.0305
0.327357,-0.0843,0.0839,0.0049,-0.2376,0.3162,-0.0305
0.327870,-0.0843,0.0839,0.0049,-0.2376,0.3162,-0.0305
0.328379,-0.0843,0.0839,0.0049,-0.2509,0.3200,-0.0220
0.329007,-0.1695,0.1504,0.0332,-0.2509,0.3200,-0.0220
0.329451,-0.1695,0.1504,0.0332,-0.2509,0.3200,-0.0220
0.329834,-0.1695,0.1504,0.0332,-0.2632,0.3235,-0.0110
0.330337,-0.2245,0.1882,0.0825,-0.2632,0.3235,-0.0110
0.330953,-0.2245,0.1882,0.0825,-0.2632,0.3235,-0.0110
0.331397,-0.2245,0.1882,0.0825,-0.2767,0.3235,0.0012
0.331920,-0.2564,0.2459,0.1009,-0.2767,0.3235,0.0012
0.332528,-0.2564,0.2459,0.1009,-0.2767,0.3235,0.0012
0.332918,-0.2564,0.2459,0.1009,-0.2937,0.3248,0.0172
0.333434,-0.2933,0.2631,0.1171,-0.2937,0.3248,0.0172
0.334031,-0.2933,0.2631,0.1171,-0.2937,0.3248,0.0172
0.334440,-0.2933,0.2631,0.1171,-0.3097,0.3260,0.0305
0.334990,-0.3004,0.3284,0.1594,-0.3097,0.3260,0.0305
0.335498,-0.3004,0.3284,0.1594,-0.3097,0.3260,0.0305
0.335888,-0.3004,0.3284,0.1594,-0.3242,0.3273,0.0465
0.336487,-0.3117,0.3242,0.1874,-0.3242,0.3273,0.0465
0.337066,-0.3117,0.3242,0.1874,-0.3242,0.3273,0.0465
0.337461,-0.3117,0.3242,0.1874,-0.3414,0.3273,0.0623
0.337936,-0.3002,0.3046,0.2244,-0.3414,0.3273,0.0623
0.338490,-0.3002,0.3046,0.2244,-0.3414,0.3273,0.0623
0.338926,-0.3002,0.3046,0.2244,-0.3585,0.3260,0.0758
0.339410,-0.2610,0.2994,0.2641,-0.3585,0.3260,0.0758
0.339980,-0.2610,0.2994,0.2641,-0.3585,0.3260,0.0758
0.340490,-0.2610,0.2994,0.2641,-0.3744,0.3260,0.0880
0.340995,-0.1934,0.2808,0.3197,-0.3744,0.3260,0.0880
0.341518,-0.1934,0.2808,0.3197,-0.3744,0.3260,0.0880
0.341934,-0.1934,0.2808,0.3197,-0.3890,0.3260,0.0990
0.342351,-0.1670,0.2547,0.3921,-0.3890,0.3260,0.0990
0.342918,-0.1670,0.2547,0.3921,-0.3890,0.3260,0.0990
0.343367,-0.1670,0.2547,0.3921,-0.4025,0.3248,0.1088
0.343783,-0.0981,0.2102,0.4694,-0.4025,0.3248,0.1088
0.344471,-0.0981,0.2102,0.4694,-0.4025,0.3248,0.1088
0.344870,-0.0981,0.2102,0.4694,-0.4135,0.3235,0.1185
0.345375,-0.0535,0.1742,0.5275,-0.4135,0.3235,0.1185
0.345897,-0.0535,0.1742,0.5275,-0.4135,0.3235,0.1185
0.346437,-0.0535,0.1742,0.5275,-0.4269,0.3187,0.1258
0.346989,-0.0031,0.1305,0.6046,-0.4269,0.3187,0.1258
0.347649,-0.0031,0.1305,0.6046,-0.4269,0.3187,0.1258
0.348155,-0.0031,0.1305,0.6046,-0.4342,0.3114,0.1320
0.348662,0.0337,0.1072,0.7154,-0.4342,0.3114,0.1320
0.349179,0.0337,0.1072,0.7154,-0.4342,0.3114,0.1320
0.349589,0.0337,0.1072,0.7154,-0.4428,0.3028,0.1332
0.350114,0.0963,0.0782,0.7991,-0.4428,0.3028,0.1332
0.350667,0.0963,0.0782,0.7991,-0.4428,0.3028,0.1332
0.351065,0.0963,0.0782,0.7991,-0.4465,0.2955,0.1368
0.351584,0.1237,0.0195,0.9019,-0.4465,0.2955,0.1368
0.352204,0.1237,0.0195,0.9019,-0.4465,0.2955,0.1368
0.352616,0.1237,0.0195,0.9019,-0.4477,0.2845,0.1357
0.353029,0.1718,0.0200,0.9546,-0.4477,0.2845,0.1357
0.353600,0.1718,0.0200,0.9546,-0.4477,0.2845,0.1357
0.354041,0.1718,0.0200,0.9546,-0.4477,0.2735,0.1357
0.354462,0.2095,-0.0336,1.0913,-0.4477,0.2735,0.1357
0.355051,0.2095,-0.0336,1.0913,-0.4477,0.2735,0.1357
0.355439,0.2095,-0.0336,1.0913,-0.4452,0.2637,0.1357
0.355916,0.2648,-0.0542,1.1588,-0.4452,0.2637,0.1357
0.356530,0.2648,-0.0542,1.1588,-0.4452,0.2637,0.1357
0.356950,0.2648,-0.0542,1.1588,-0.4379,0.2527,0.1332
0.357473,0.3049,-0.0440,1.2326,-0.4379,0.2527,0.1332
0.358066,0.3049,-0.0440,1.2326,-0.4379,0.2527,0.1332
0.358469,0.3049,-0.0440,1.2326,-0.4317,0.2405,0.1270
0.359039,0.3437,-0.0628,1.3093,-0.4317,0.2405,0.1270
0.359525,0.3437,-0.0628,1.3093,-0.4317,0.2405,0.1270
0.359920,0.3437,-0.0628,1.3093,-0.4220,0.2307,0.1235
0.360561,0.3713,-0.0768,1.3460,-0.4220,0.2307,0.1235
0.361195,0.3713,-0.0768,1.3460,-0.4220,0.2307,0.1235
0.361625,0.3713,-0.0768,1.3460,-0.4110,0.2197,0.1173
0.362232,0.4176,-0.0840,1.4077,-0.4110,0.2197,0.1173
0.362801,0.4176,-0.0840,1.4077,-0.4110,0.2197,0.1173
0.363193,0.4176,-0.0840,1.4077,-0.3964,0.2087,0.1100
0.363830,0.4567,-0.1175,1.4325,-0.3964,0.2087,0.1100
0.364590,0.4567,-0.1175,1.4325,-0.3964,0.2087,0.1100
0.365015,0.4567,-0.1175,1.4325,-0.3805,0.1990,0.1027
0.365538,0.4715,-0.1633,1.4135,-0.3805,0.1990,0.1027
0.366154,0.4715,-0.1633,1.4135,-0.3805,0.1990,0.1027
0.366549,0.4715,-0.1633,1.4135,-0.3634,0.1892,0.0930
0.367038,0.5011,-0.1594,1.4305,-0.3634,0.1892,0.0930
0.367616,0.5011,-0.1594,1.4305,-0.3634,0.1892,0.0930
0.368009,0.5011,-0.1594,1.4305,-0.3475,0.1770,0.0855
0.368565,0.5413,-0.1699,1.4045,-0.3475,0.1770,0.0855
0.369130,0.5413,-0.1699,1.4045,-0.3475,0.1770,0.0855
0.369602,0.5413,-0.1699,1.4045,-0.3292,0.1722,0.0758
0.370112,0.5655,-0.1756,1.3666,-0.3292,0.1722,0.0758
0.370680,0.5655,-0.1756,1.3666,-0.3292,0.1722,0.0758
0.371102,0.5655,-0.1756,1.3666,-0.3121,0.1647,0.0672
0.371638,0.6073,-0.1678,1.3078,-0.3121,0.1647,0.0672
0.372853,0.6073,-0.1678,1.3078,-0.3121,0.1647,0.0672
0.373336,0.6073,-0.1678,1.3078,-0.2937,0.1587,0.0562
0.373755,0.6021,-0.1993,1.2631,-0.2937,0.1587,0.0562
0.374436,0.6021,-0.1993,1.2631,-0.2937,0.1587,0.0562
0.374866,0.6021,-0.1993,1.2631,-0.2767,0.1574,0.0465
0.375270,0.5867,-0.1722,1.2064,-0.2767,0.1574,0.0465
0.375885,0.5867,-0.1722,1.2064,-0.2767,0.1574,0.0465
0.376393,0.5867,-0.1722,1.2064,-0.2595,0.1562,0.0380
0.376996,0.5965,-0.1304,1.1329,-0.2595,0.1562,0.0380
0.377646,0.5965,-0.1304,1.1329,-0.2595,0.1562,0.0380
0.378055,0.5965,-0.1304,1.1329,-0.2424,0.1587,0.0257
0.378454,0.5384,-0.1002,1.0785,-0.2424,0.1587,0.0257
0.407713,0.5384,-0.1002,1.0785,-0.2424,0.1587,0.0257
0.408288,0.5384,-0.1002,1.0785,-0.2266,0.1647,0.0172
0.408778,0.5094,-0.0674,1.0033,-0.2266,0.1647,0.0172
0.409480,0.5094,-0.0674,1.0033,-0.2266,0.1647,0.0172
0.409901,0.5094,-0.0674,1.0033,-0.2119,0.1722,0.0110
0.410444,0.4438,-0.0071,0.9472,-0.2119,0.1722,0.0110
0.411078,0.4438,-0.0071,0.9472,-0.2119,0.1722,0.0110
0.411518,0.4438,-0.0071,0.9472,-0.1997,0.1855,0.0074
0.412617,0.3447,0.0289,0.8723,-0.1997,0.1855,0.0074
0.413308,0.3447,0.0289,0.8723,-0.1997,0.1855,0.0074
0.413861,0.3447,0.0289,0.8723,-0.1862,0.1990,0.0037
0.414375,0.3039,0.1004,0.8304,-0.1862,0.1990,0.0037
0.415110,0.3039,0.1004,0.8304,-0.1862,0.1990,0.0037
0.415584,0.3039,0.1004,0.8304,-0.1764,0.2124,0.0049
0.416127,0.1960,0.1166,0.7907,-0.1764,0.2124,0.0049
0.416882,0.1960,0.1166,0.7907,-0.1764,0.2124,0.0049
0.417331,0.1960,0.1166,0.7907,-0.1666,0.2307,0.0074
0.417747,0.0996,0.1773,0.7403,-0.1666,0.2307,0.0074
0.418442,0.0996,0.1773,0.7403,-0.1666,0.2307,0.0074
0.418848,0.0996,0.1773,0.7403,-0.1594,0.2430,0.0135
0.419365,0.0566,0.2246,0.6968,-0.1594,0.2430,0.0135
0.419995,0.0566,0.2246,0.6968,-0.1594,0.2430,0.0135
0.420534,0.0566,0.2246,0.6968,-0.1521,0.2588,0.0184
0.421114,0.0072,0.2676,0.6417,-0.1521,0.2588,0.0184
0.421767,0.0072,0.2676,0.6417,-0.1521,0.2588,0.0184
0.422186,0.0072,0.2676,0.6417,-0.1484,0.2772,0.0282
0.422758,-0.0537,0.3251,0.6035,-0.1484,0.2772,0.0282
0.423386,-0.0537,0.3251,0.6035,-0.1484,0.2772,0.0282
0.423791,-0.0537,0.3251,0.6035,-0.1446,0.2905,0.0380
0.424422,-0.1329,0.3855,0.5697,-0.1446,0.2905,0.0380
0.425009,-0.1329,0.3855,0.5697,-0.1446,0.2905,0.0380
0.425451,-0.1329,0.3855,0.5697,-0.1434,0.3015,0.0513
0.426120,-0.1690,0.4086,0.5407,-0.1434,0.3015,0.0513
0.426783,-0.1690,0.4086,0.5407,-0.1434,0.3015,0.0513
0.427203,-0.1690,0.4086,0.5407,-0.1446,0.3138,0.0635
0.427696,-0.2425,0.4017,0.5319,-0.1446,0.3138,0.0635
0.428451,-0.2425,0.4017,0.5319,-0.1446,0.3138,0.0635
0.428892,-0.2425,0.4017,0.5319,-0.1484,0.3187,0.0758
0.429434,-0.3067,0.4297,0.5302,-0.1484,0.3187,0.0758
0.430098,-0.3067,0.4297,0.5302,-0.1484,0.3187,0.0758
0.430568,-0.3067,0.4297,0.5302,-0.1508,0.3224,0.0892
0.431146,-0.3019,0.4369,0.5105,-0.1508,0.3224,0.0892
0.431817,-0.3019,0.4369,0.5105,-0.1508,0.3224,0.0892
0.432298,-0.3019,0.4369,0.5105,-0.1557,0.3212,0.1027
0.432911,-0.3031,0.3960,0.4587,-0.1557,0.3212,0.1027
0.433562,-0.3031,0.3960,0.4587,-0.1557,0.3212,0.1027
0.434027,-0.3031,0.3960,0.4587,-0.1642,0.3200,0.1160
0.434576,-0.2984,0.4032,0.4539,-0.1642,0.3200,0.1160
0.435250,-0.2984,0.4032,0.4539,-0.1642,0.3200,0.1160
0.435709,-0.2984,0.4032,0.4539,-0.1728,0.3162,0.1247
0.436190,-0.2759,0.4006,0.4301,-0.1728,0.3162,0.1247
0.436862,-0.2759,0.4006,0.4301,-0.1728,0.3162,0.1247
0.437309,-0.2759,0.4006,0.4301,-0.1826,0.3125,0.1345
0.437842,-0.2477,0.4052,0.4401,-0.1826,0.3125,0.1345
0.438544,-0.2477,0.4052,0.4401,-0.1826,0.3125,0.1345
0.438964,-0.2477,0.4052,0.4401,-0.1936,0.3040,0.1418
0.439372,-0.2098,0.3752,0.4781,-0.1936,0.3040,0.1418
0.440148,-0.2098,0.3752,0.4781,-0.1936,0.3040,0.1418
0.440596,-0.2098,0.3752,0.4781,-0.2058,0.2882,0.1503
0.441140,-0.1676,0.3327,0.4869,-0.2058,0.2882,0.1503
0.441845,-0.1676,0.3327,0.4869,-0.2058,0.2882,0.1503
0.442306,-0.1676,0.3327,0.4869,-0.2179,0.2698,0.1565
0.442879,-0.1230,0.3125,0.5205,-0.2179,0.2698,0.1565
0.443455,-0.1230,0.3125,0.5205,-0.2179,0.2698,0.1565
0.443849,-0.1230,0.3125,0.5205,-0.2289,0.2503,0.1601
0.444430,-0.0801,0.2995,0.5151,-0.2289,0.2503,0.1601
0.445097,-0.0801,0.2995,0.5151,-0.2289,0.2503,0.1601
0.445509,-0.0801,0.2995,0.5151,-0.2387,0.2307,0.1625
0.445928,-0.0657,0.2570,0.5404,-0.2387,0.2307,0.1625
0.446520,-0.0657,0.2570,0.5404,-0.2387,0.2307,0.1625
0.446931,-0.0657,0.2570,0.5404,-0.2474,0.2100,0.1650
0.447364,-0.0310,0.2278,0.5756,-0.2474,0.2100,0.1650
0.447954,-0.0310,0.2278,0.5756,-0.2474,0.2100,0.1650
0.448449,-0.0310,0.2278,0.5756,-0.2571,0.1904,0.1650
0.449004,0.0441,0.2089,0.5918,-0.2571,0.1904,0.1650
0.449580,0.0441,0.2089,0.5918,-0.2571,0.1904,0.1650
0.450040,0.0441,0.2089,0.5918,-0.2657,0.1697,0.1638
0.450556,0.0895,0.2283,0.6167,-0.2657,0.1697,0.1638
0.451127,0.0895,0.2283,0.6167,-0.2657,0.1697,0.1638
0.451567,0.0895,0.2283,0.6167,-0.2717,0.1452,0.1625
0.451968,0.1104,0.2197,0.6326,-0.2717,0.1452,0.1625
0.452613,0.1104,0.2197,0.6326,-0.2717,0.1452,0.1625
0.452840,0.1104,0.2197,0.6326,-0.2767,0.1244,0.1588
0.453139,0.1595,0.1725,0.6553,-0.2767,0.1244,0.1588
0.453493,0.1595,0.1725,0.6553,-0.2767,0.1244,0.1588
0.453780,0.1595,0.1725,0.6553,-0.2804,0.1024,0.1540
0.454082,0.1860,0.1335,0.6711,-0.2804,0.1024,0.1540
0.454787,0.1860,0.1335,0.6711,-0.2804,0.1024,0.1540
0.455381,0.1860,0.1335,0.6711,-0.2815,0.0817,0.1503
0.455779,0.2101,0.0897,0.6696,-0.2815,0.0817,0.1503
0.456290,0.2101,0.0897,0.6696,-0.2815,0.0817,0.1503
0.456606,0.2101,0.0897,0.6696,-0.2804,0.0622,0.1467
0.456922,0.2695,0.0739,0.6820,-0.2804,0.0622,0.1467
0.457321,0.2695,0.0739,0.6820,-0.2804,0.0622,0.1467
0.457627,0.2695,0.0739,0.6820,-0.2779,0.0474,0.1405
0.458002,0.2995,0.0492,0.6734,-0.2779,0.0474,0.1405
0.458376,0.2995,0.0492,0.6734,-0.2779,0.0474,0.1405
0.458679,0.2995,0.0492,0.6734,-0.2717,0.0341,0.1332
0.459036,0.3001,0.0335,0.6649,-0.2717,0.0341,0.1332
0.459453,0.3001,0.0335,0.6649,-0.2717,0.0341,0.1332
0.459778,0.3001,0.0335,0.6649,-0.2632,0.0231,0.1258
0.460205,0.3224,0.0236,0.6683,-0.2632,0.0231,0.1258
0.460625,0.3224,0.0236,0.6683,-0.2632,0.0231,0.1258
0.460954,0.3224,0.0236,0.6683,-0.2534,0.0157,0.1198
0.461262,0.3565,0.0245,0.6427,-0.2534,0.0157,0.1198
0.477904,0.3565,0.0245,0.6427,-0.2534,0.0157,0.1198
0.478316,0.3565,0.0245,0.6427,-0.2424,0.0109,0.1137
0.478653,0.3903,-0.0057,0.6551,-0.2424,0.0109,0.1137
0.479131,0.3903,-0.0057,0.6551,-0.2424,0.0109,0.1137
0.479469,0.3903,-0.0057,0.6551,-0.2266,0.0109,0.1063
0.479897,0.3833,0.0185,0.6657,-0.2266,0.0109,0.1063
0.480357,0.3833,0.0185,0.6657,-0.2266,0.0109,0.1063
0.480622,0.3833,0.0185,0.6657,-0.2094,0.0133,0.1015
0.480974,0.3455,0.0305,0.6575,-0.2094,0.0133,0.1015
0.481428,0.3455,0.0305,0.6575,-0.2094,0.0133,0.1015
0.481709,0.3455,0.0305,0.6575,-0.1911,0.0169,0.0940
0.481986,0.3656,0.0778,0.6302,-0.1911,0.0169,0.0940
0.482360,0.3656,0.0778,0.6302,-0.1911,0.0169,0.0940
0.482618,0.3656,0.0778,0.6302,-0.1704,0.0194,0.0855
0.482933,0.3638,0.0915,0.6092,-0.1704,0.0194,0.0855
0.483339,0.3638,0.0915,0.6092,-0.1704,0.0194,0.0855
0.483609,0.3638,0.0915,0.6092,-0.1484,0.0243,0.0807
0.483888,0.3382,0.1047,0.5583,-0.1484,0.0243,0.0807
0.484370,0.3382,0.1047,0.5583,-0.1484,0.0243,0.0807
0.484626,0.3382,0.1047,0.5583,-0.1276,0.0329,0.0758
0.484846,0.3677,0.1094,0.5006,-0.1276,0.0329,0.0758
0.485198,0.3677,0.1094,0.5006,-0.1276,0.0329,0.0758
0.485420,0.3677,0.1094,0.5006,-0.1056,0.0426,0.0710
0.485634,0.3523,0.1354,0.4449,-0.1056,0.0426,0.0710
0.485973,0.3523,0.1354,0.4449,-0.1056,0.0426,0.0710
0.486204,0.3523,0.1354,0.4449,-0.0848,0.0549,0.0660
0.486481,0.3321,0.1657,0.3455,-0.0848,0.0549,0.0660
0.486763,0.3321,0.1657,0.3455,-0.0848,0.0549,0.0660
0.486978,0.3321,0.1657,0.3455,-0.0653,0.0671,0.0612
0.487191,0.3351,0.2179,0.2954,-0.0653,0.0671,0.0612
0.487513,0.3351,0.2179,0.2954,-0.0653,0.0671,0.0612
0.487730,0.3351,0.2179,0.2954,-0.0469,0.0804,0.0587
0.487965,0.2723,0.2770,0.1614,-0.0469,0.0804,0.0587
0.488823,0.2723,0.2770,0.1614,-0.0469,0.0804,0.0587
0.490941,0.2723,0.2770,0.1614,-0.0336,0.0964,0.0562
0.491238,0.2052,0.2919,0.0419,-0.0336,0.0964,0.0562
0.491775,0.2052,0.2919,0.0419,-0.0336,0.0964,0.0562
0.492300,0.2052,0.2919,0.0419,-0.0213,0.1122,0.0525
0.492665,0.1930,0.3614,-0.0981,-0.0213,0.1122,0.0525
0.493059,0.1930,0.3614,-0.0981,-0.0213,0.1122,0.0525
0.493290,0.1930,0.3614,-0.0981,-0.0140,0.1330,0.0562
0.493515,0.1377,0.3681,-0.2091,-0.0140,0.1330,0.0562
0.496644,0.1377,0.3681,-0.2091,-0.0140,0.1330,0.0562
0.496914,0.1377,0.3681,-0.2091,-0.0103,0.1550,0.0600
0.497245,0.0926,0.4012,-0.3501,-0.0103,0.1550,0.0600
0.497581,0.0926,0.4012,-0.3501,-0.0103,0.1550,0.0600
0.497792,0.0926,0.4012,-0.3501,-0.0091,0.1770,0.0648
0.498017,0.0342,0.4431,-0.4110,-0.0091,0.1770,0.0648
0.505063,0.0342,0.4431,-0.4110,-0.0091,0.1770,0.0648
0.505556,0.0342,0.4431,-0.4110,-0.0115,0.1990,0.0710
0.505819,0.0215,0.4763,-0.4909,-0.0115,0.1990,0.0710
0.506242,0.0215,0.4763,-0.4909,-0.0115,0.1990,0.0710
0.506495,0.0215,0.4763,-0.4909,-0.0164,0.2197,0.0795
0.506821,-0.0265,0.4905,-0.5378,-0.0164,0.2197,0.0795
0.507161,-0.0265,0.4905,-0.5378,-0.0164,0.2197,0.0795
0.507383,-0.0265,0.4905,-0.5378,-0.0213,0.2417,0.0868
0.507694,-0.0471,0.4968,-0.5587,-0.0213,0.2417,0.0868
0.508022,-0.0471,0.4968,-0.5587,-0.0213,0.2417,0.0868
0.508314,-0.0471,0.4968,-0.5587,-0.0274,0.2600,0.0940
0.508572,-0.0342,0.4904,-0.5856,-0.0274,0.2600,0.0940
0.511057,-0.0342,0.4904,-0.5856,-0.0274,0.2600,0.0940
0.511384,-0.0342,0.4904,-0.5856,-0.0359,0.2797,0.1002
0.511738,-0.0638,0.5239,-0.5683,-0.0359,0.2797,0.1002
0.512148,-0.0638,0.5239,-0.5683,-0.0359,0.2797,0.1002
0.512433,-0.0638,0.5239,-0.5683,-0.0446,0.2955,0.1088
0.512698,-0.0433,0.5168,-0.5791,-0.0446,0.2955,0.1088
0.514486,-0.0433,0.5168,-0.5791,-0.0446,0.2955,0.1088
0.514746,-0.0433,0.5168,-0.5791,-0.0531,0.3138,0.1173
0.514979,-0.0214,0.4978,-0.5369,-0.0531,0.3138,0.1173
0.517519,-0.0214,0.4978,-0.5369,-0.0531,0.3138,0.1173
0.517965,-0.0214,0.4978,-0.5369,-0.0616,0.3310,0.1222
0.518356,-0.0142,0.4887,-0.4856,-0.0616,0.3310,0.1222
0.518779,-0.0142,0.4887,-0.4856,-0.0616,0.3310,0.1222
0.519004,-0.0142,0.4887,-0.4856,-0.0689,0.3468,0.1247
0.519353,0.0141,0.4986,-0.4434,-0.0689,0.3468,0.1247
0.521276,0.0141,0.4986,-0.4434,-0.0689,0.3468,0.1247
0.521807,0.0141,0.4986,-0.4434,-0.0751,0.3627,0.1283
0.522415,0.0128,0.5340,-0.4040,-0.0751,0.3627,0.1283
0.524403,0.0128,0.5340,-0.4040,-0.0751,0.3627,0.1283
0.524853,0.0128,0.5340,-0.4040,-0.0786,0.3773,0.1345
0.525511,-0.0010,0.5144,-0.3444,-0.0786,0.3773,0.1345
0.526186,-0.0010,0.5144,-0.3444,-0.0786,0.3773,0.1345
0.526643,-0.0010,0.5144,-0.3444,-0.0861,0.3871,0.1345
0.527378,-0.0068,0.4878,-0.2949,-0.0861,0.3871,0.1345
0.529863,-0.0068,0.4878,-0.2949,-0.0861,0.3871,0.1345
0.530286,-0.0068,0.4878,-0.2949,-0.0934,0.3932,0.1368
0.530811,0.0344,0.4781,-0.2654,-0.0934,0.3932,0.1368
0.531394,0.0344,0.4781,-0.2654,-0.0934,0.3932,0.1368
0.531850,0.0344,0.4781,-0.2654,-0.0983,0.3981,0.1381
0.532468,0.0187,0.4465,-0.2128,-0.0983,0.3981,0.1381
0.534128,0.0187,0.4465,-0.2128,-0.0983,0.3981,0.1381
0.534384,0.0187,0.4465,-0.2128,-0.1056,0.3993,0.1393
0.534726,0.0230,0.4199,-0.1733,-0.1056,0.3993,0.1393
0.535414,0.0230,0.4199,-0.1733,-0.1056,0.3993,0.1393
0.535718,0.0230,0.4199,-0.1733,-0.1116,0.3945,0.1381
0.535953,0.0429,0.3861,-0.1288,-0.1116,0.3945,0.1381
0.537827,0.0429,0.3861,-0.1288,-0.1116,0.3945,0.1381
0.538150,0.0429,0.3861,-0.1288,-0.1178,0.3895,0.1381
0.538564,0.0623,0.3649,-0.0554,-0.1178,0.3895,0.1381
0.541632,0.0623,0.3649,-0.0554,-0.1178,0.3895,0.1381
0.542498,0.0623,0.3649,-0.0554,-0.1239,0.3823,0.1357
0.543134,0.0643,0.3271,-0.0492,-0.1239,0.3823,0.1357
0.543625,0.0643,0.3271,-0.0492,-0.1239,0.3823,0.1357
0.543988,0.0643,0.3271,-0.0492,-0.1264,0.3785,0.1332
0.544658,0.1140,0.3122,0.0017,-0.1264,0.3785,0.1332
0.545249,0.1140,0.3122,0.0017,-0.1264,0.3785,0.1332
0.545619,0.1140,0.3122,0.0017,-0.1324,0.3688,0.1258
0.546123,0.1890,0.3243,0.0765,-0.1324,0.3688,0.1258
0.549351,0.1890,0.3243,0.0765,-0.1324,0.3688,0.1258
0.550123,0.1890,0.3243,0.0765,-0.1374,0.3553,0.1160
0.551089,0.1948,0.2555,0.1318,-0.1374,0.3553,0.1160
0.552239,0.1948,0.2555,0.1318,-0.1374,0.3553,0.1160
0.552795,0.1948,0.2555,0.1318,-0.1411,0.3432,0.1100
0.553370,0.1488,0.1764,0.1801,-0.1411,0.3432,0.1100
0.554021,0.1488,0.1764,0.1801,-0.1411,0.3432,0.1100
0.554448,0.1488,0.1764,0.1801,-0.1411,0.3285,0.1050
0.554875,0.1187,0.0691,0.2761,-0.1411,0.3285,0.1050
0.555575,0.1187,0.0691,0.2761,-0.1411,0.3285,0.1050
0.555973,0.1187,0.0691,0.2761,-0.1398,0.3138,0.0990
0.556473,0.0599,-0.0205,0.3191,-0.1398,0.3138,0.0990
0.557171,0.0599,-0.0205,0.3191,-0.1398,0.3138,0.0990
0.557638,0.0599,-0.0205,0.3191,-0.1337,0.2967,0.0930
0.558123,0.0566,-0.0748,0.3929,-0.1337,0.2967,0.0930
0.566034,0.0566,-0.0748,0.3929,-0.1337,0.2967,0.0930
0.566676,0.0566,-0.0748,0.3929,-0.1301,0.2797,0.0843
0.567116,0.0809,-0.1260,0.4316,-0.1301,0.2797,0.0843
0.567738,0.0809,-0.1260,0.4316,-0.1301,0.2797,0.0843
0.568228,0.0809,-0.1260,0.4316,-0.1203,0.2637,0.0745
0.568654,0.0878,-0.1414,0.4764,-0.1203,0.2637,0.0745
0.569241,0.0878,-0.1414,0.4764,-0.1203,0.2637,0.0745
0.569608,0.0878,-0.1414,0.4764,-0.1093,0.2479,0.0660
0.570123,0.1024,-0.1479,0.5121,-0.1093,0.2479,0.0660
0.570875,0.1024,-0.1479,0.5121,-0.1093,0.2479,0.0660
0.571487,0.1024,-0.1479,0.5121,-0.0983,0.2369,0.0538
0.572163,0.1187,-0.1378,0.5569,-0.0983,0.2369,0.0538
0.572758,0.1187,-0.1378,0.5569,-0.0983,0.2369,0.0538
0.573183,0.1187,-0.1378,0.5569,-0.0848,0.2222,0.0392
0.573664,0.1467,-0.1179,0.6098,-0.0848,0.2222,0.0392
0.574341,0.1467,-0.1179,0.6098,-0.0848,0.2222,0.0392
0.574854,0.1467,-0.1179,0.6098,-0.0714,0.2100,0.0282
0.575333,0.1882,-0.1105,0.5977,-0.0714,0.2100,0.0282
0.576107,0.1882,-0.1105,0.5977,-0.0714,0.2100,0.0282
0.576588,0.1882,-0.1105,0.5977,-0.0543,0.1990,0.0135
0.577086,0.2584,-0.1222,0.6045,-0.0543,0.1990,0.0135
0.577859,0.2584,-0.1222,0.6045,-0.0543,0.1990,0.0135
0.578297,0.2584,-0.1222,0.6045,-0.0336,0.1965,-0.0048
0.578941,0.2395,-0.1443,0.5474,-0.0336,0.1965,-0.0048
0.579685,0.2395,-0.1443,0.5474,-0.0336,0.1965,-0.0048
0.580170,0.2395,-0.1443,0.5474,-0.0128,0.1917,-0.0220
0.580610,0.2424,-0.1428,0.4634,-0.0128,0.1917,-0.0220
0.581171,0.2424,-0.1428,0.4634,-0.0128,0.1917,-0.0220
0.581590,0.2424,-0.1428,0.4634,0.0092,0.1929,-0.0390
0.582125,0.2504,-0.0901,0.4107,0.0092,0.1929,-0.0390
0.596485,0.2504,-0.0901,0.4107,0.0092,0.1929,-0.0390
0.597079,0.2504,-0.0901,0.4107,0.0300,0.1954,-0.0586
0.597683,0.2414,-0.0777,0.3250,0.0300,0.1954,-0.0586
0.598190,0.2414,-0.0777,0.3250,0.0300,0.1954,-0.0586
0.598582,0.2414,-0.0777,0.3250,0.0507,0.2014,-0.0769
0.599197,0.2137,-0.0391,0.2175,0.0507,0.2014,-0.0769
0.599734,0.2137,-0.0391,0.2175,0.0507,0.2014,-0.0769
0.599947,0.2137,-0.0391,0.2175,0.0667,0.2112,-0.0916
0.600326,0.1574,-0.0209,0.1200,0.0667,0.2112,-0.0916
0.600577,0.1574,-0.0209,0.1200,0.0667,0.2112,-0.0916
0.600786,0.1574,-0.0209,0.1200,0.0814,0.2210,-0.1075
0.600994,0.1187,0.0271,-0.0320,0.0814,0.2210,-0.1075
0.601236,0.1187,0.0271,-0.0320,0.0814,0.2210,-0.1075
0.601442,0.1187,0.0271,-0.0320,0.0923,0.2307,-0.1221
0.601653,0.0642,0.0129,-0.1427,0.0923,0.2307,-0.1221
0.601957,0.0642,0.0129,-0.1427,0.0923,0.2307,-0.1221
0.602182,0.0642,0.0129,-0.1427,0.0997,0.2430,-0.1343
0.602461,0.0185,0.0415,-0.2833,0.0997,0.2430,-0.1343
0.602686,0.0185,0.0415,-0.2833,0.0997,0.2430,-0.1343
0.602891,0.0185,0.0415,-0.2833,0.1045,0.2540,-0.1441
0.603102,-0.0653,0.0300,-0.3849,0.1045,0.2540,-0.1441
0.603403,-0.0653,0.0300,-0.3849,0.1045,0.2540,-0.1441
0.603614,-0.0653,0.0300,-0.3849,0.1070,0.2674,-0.1539
0.603947,-0.0988,0.0513,-0.4982,0.1070,0.2674,-0.1539
0.604306,-0.0988,0.0513,-0.4982,0.1070,0.2674,-0.1539
0.604559,-0.0988,0.0513,-0.4982,0.1057,0.2784,-0.1588
0.604854,-0.1488,0.0726,-0.5726,0.1057,0.2784,-0.1588
0.605162,-0.1488,0.0726,-0.5726,0.1057,0.2784,-0.1588
0.605373,-0.1488,0.0726,-0.5726,0.1033,0.2882,-0.1661
0.605633,-0.2283,0.0790,-0.6839,0.1033,0.2882,-0.1661
0.608350,-0.2283,0.0790,-0.6839,0.1033,0.2882,-0.1661
0.608609,-0.2283,0.0790,-0.6839,0.1009,0.2992,-0.1710
0.608818,-0.3054,0.0934,-0.7631,0.1009,0.2992,-0.1710
0.609203,-0.3054,0.0934,-0.7631,0.1009,0.2992,-0.1710
0.609433,-0.3054,0.0934,-0.7631,0.0935,0.3138,-0.1722
0.609737,-0.3850,0.1239,-0.8313,0.0935,0.3138,-0.1722
0.612499,-0.3850,0.1239,-0.8313,0.0935,0.3138,-0.1722
0.612835,-0.3850,0.1239,-0.8313,0.0899,0.3273,-0.1710
0.613070,-0.4491,0.1604,-0.9244,0.0899,0.3273,-0.1710
0.613786,-0.4491,0.1604,-0.9244,0.0899,0.3273,-0.1710
0.614216,-0.4491,0.1604,-0.9244,0.0802,0.3432,-0.1686
0.614698,-0.4421,0.1603,-1.0065,0.0802,0.3432,-0.1686
0.617113,-0.4421,0.1603,-1.0065,0.0802,0.3432,-0.1686
0.617586,-0.4421,0.1603,-1.0065,0.0727,0.3602,-0.1661
0.618190,-0.4317,0.1463,-1.0767,0.0727,0.3602,-0.1661
0.618663,-0.4317,0.1463,-1.0767,0.0727,0.3602,-0.1661
0.618904,-0.4317,0.1463,-1.0767,0.0630,0.3823,-0.1624
0.619862,-0.4181,0.1614,-1.1588,0.0630,0.3823,-0.1624
0.621034,-0.4181,0.1614,-1.1588,0.0630,0.3823,-0.1624
0.621519,-0.4181,0.1614,-1.1588,0.0544,0.4042,-0.1613
0.622275,-0.3781,0.1379,-1.2431,0.0544,0.4042,-0.1613
0.629199,-0.3781,0.1379,-1.2431,0.0544,0.4042,-0.1613
0.629927,-0.3781,0.1379,-1.2431,0.0459,0.4298,-0.1601
0.630673,-0.3835,0.1566,-1.2771,0.0459,0.4298,-0.1601
0.631636,-0.3835,0.1566,-1.2771,0.0459,0.4298,-0.1601
0.632205,-0.3835,0.1566,-1.2771,0.0374,0.4580,-0.1576
0.632928,-0.3215,0.1574,-1.3112,0.0374,0.4580,-0.1576
0.633701,-0.3215,0.1574,-1.3112,0.0374,0.4580,-0.1576
0.634128,-0.3215,0.1574,-1.3112,0.0276,0.4922,-0.1576
0.634687,-0.3156,0.1655,-1.3452,0.0276,0.4922,-0.1576
0.635325,-0.3156,0.1655,-1.3452,0.0276,0.4922,-0.1576
0.635737,-0.3156,0.1655,-1.3452,0.0202,0.5251,-0.1563
0.636426,-0.3141,0.1487,-1.3620,0.0202,0.5251,-0.1563
0.636915,-0.3141,0.1487,-1.3620,0.0202,0.5251,-0.1563
0.637156,-0.3141,0.1487,-1.3620,0.0129,0.5594,-0.1563
0.637445,-0.2810,0.1263,-1.3289,0.0129,0.5594,-0.1563
0.637798,-0.2810,0.1263,-1.3289,0.0129,0.5594,-0.1563
0.638020,-0.2810,0.1263,-1.3289,0.0080,0.5924,-0.1588
0.638295,-0.2709,0.1139,-1.2645,0.0080,0.5924,-0.1588
0.638622,-0.2709,0.1139,-1.2645,0.0080,0.5924,-0.1588
0.638848,-0.2709,0.1139,-1.2645,0.0044,0.6229,-0.1613
0.639123,-0.3051,0.0616,-1.2302,0.0044,0.6229,-0.1613
0.644203,-0.3051,0.0616,-1.2302,0.0044,0.6229,-0.1613
0.644943,-0.3051,0.0616,-1.2302,0.0056,0.6523,-0.1624
0.645472,-0.3076,-0.0085,-1.1607,0.0056,0.6523,-0.1624
0.646157,-0.3076,-0.0085,-1.1607,0.0056,0.6523,-0.1624
0.646588,-0.3076,-0.0085,-1.1607,0.0067,0.6791,-0.1673
0.647180,-0.3095,-0.0634,-1.0752,0.0067,0.6791,-0.1673
0.647782,-0.3095,-0.0634,-1.0752,0.0067,0.6791,-0.1673
0.648274,-0.3095,-0.0634,-1.0752,0.0142,0.7036,-0.1698
0.648798,-0.2987,-0.1046,-1.0525,0.0142,0.7036,-0.1698
0.649178,-0.2987,-0.1046,-1.0525,0.0142,0.7036,-0.1698
0.649390,-0.2987,-0.1046,-1.0525,0.0239,0.7292,-0.1759
0.649658,-0.2854,-0.1595,-0.9927,0.0239,0.7292,-0.1759
0.649972,-0.2854,-0.1595,-0.9927,0.0239,0.7292,-0.1759
0.650199,-0.2854,-0.1595,-0.9927,0.0349,0.7561,-0.1821
0.650497,-0.2644,-0.1957,-0.9586,0.0349,0.7561,-0.1821
0.652302,-0.2644,-0.1957,-0.9586,0.0349,0.7561,-0.1821
0.652575,-0.2644,-0.1957,-0.9586,0.0472,0.7842,-0.1930
0.652967,-0.2229,-0.2291,-0.9145,0.0472,0.7842,-0.1930
0.656223,-0.2229,-0.2291,-0.9145,0.0472,0.7842,-0.1930
0.656938,-0.2229,-0.2291,-0.9145,0.0617,0.8134,-0.2016
0.657553,-0.1837,-0.2827,-0.9111,0.0617,0.8134,-0.2016
0.658222,-0.1837,-0.2827,-0.9111,0.0617,0.8134,-0.2016
0.658698,-0.1837,-0.2827,-0.9111,0.0777,0.8429,-0.2150
0.659292,-0.1079,-0.3143,-0.8765,0.0777,0.8429,-0.2150
0.659826,-0.1079,-0.3143,-0.8765,0.0777,0.8429,-0.2150
0.660114,-0.1079,-0.3143,-0.8765,0.0947,0.8734,-0.2284
0.660499,-0.0248,-0.3153,-0.8848,0.0947,0.8734,-0.2284
0.660922,-0.0248,-0.3153,-0.8848,0.0947,0.8734,-0.2284
0.661147,-0.0248,-0.3153,-0.8848,0.1130,0.9076,-0.2468
0.661467,0.0451,-0.3736,-0.9338,0.1130,0.9076,-0.2468
0.663384,0.0451,-0.3736,-0.9338,0.1130,0.9076,-0.2468
0.663668,0.0451,-0.3736,-0.9338,0.1314,0.9417,-0.2663
0.664013,0.0899,-0.4043,-0.9966,0.1314,0.9417,-0.2663
0.665970,0.0899,-0.4043,-0.9966,0.1314,0.9417,-0.2663
0.666283,0.0899,-0.4043,-0.9966,0.1485,0.9785,-0.2883
0.666757,0.1464,-0.4541,-1.0401,0.1485,0.9785,-0.2883
0.668779,0.1464,-0.4541,-1.0401,0.1485,0.9785,-0.2883
0.669042,0.1464,-0.4541,-1.0401,0.1680,1.0150,-0.3114
0.669450,0.2166,-0.4852,-1.0943,0.1680,1.0150,-0.3114
0.670983,0.2166,-0.4852,-1.0943,0.1680,1.0150,-0.3114
0.671352,0.2166,-0.4852,-1.0943,0.1888,1.0542,-0.3384
0.671749,0.2939,-0.5397,-1.1803,0.1888,1.0542,-0.3384
0.674119,0.2939,-0.5397,-1.1803,0.1888,1.0542,-0.3384
0.674543,0.2939,-0.5397,-1.1803,0.2072,1.0920,-0.3677
0.675029,0.3371,-0.6264,-1.2949,0.2072,1.0920,-0.3677
0.675443,0.3371,-0.6264,-1.2949,0.2072,1.0920,-0.3677
0.675685,0.3371,-0.6264,-1.2949,0.2267,1.1312,-0.3945
0.676021,0.4263,-0.6604,-1.4231,0.2267,1.1312,-0.3945
0.677498,0.4263,-0.6604,-1.4231,0.2267,1.1312,-0.3945
0.677804,0.4263,-0.6604,-1.4231,0.2426,1.1715,-0.4287
0.678268,0.5213,-0.6907,-1.4912,0.2426,1.1715,-0.4287
0.679906,0.5213,-0.6907,-1.4912,0.2426,1.1715,-0.4287
0.680292,0.5213,-0.6907,-1.4912,0.2585,1.2118,-0.4642
0.680918,0.6156,-0.7252,-1.6147,0.2585,1.2118,-0.4642
0.683198,0.6156,-0.7252,-1.6147,0.2585,1.2118,-0.4642
0.683748,0.6156,-0.7252,-1.6147,0.2768,1.2533,-0.4984
0.684497,0.6339,-0.7339,-1.7151,0.2768,1.2533,-0.4984
0.684959,0.6339,-0.7339,-1.7151,0.2768,1.2533,-0.4984
0.685301,0.6339,-0.7339,-1.7151,0.2951,1.2961,-0.5290
0.685659,0.6512,-0.7330,-1.8089,0.2951,1.2961,-0.5290
0.687066,0.6512,-0.7330,-1.8089,0.2951,1.2961,-0.5290
0.687486,0.6512,-0.7330,-1.8089,0.3123,1.3401,-0.5620
0.687962,0.6169,-0.7152,-1.9143,0.3123,1.3401,-0.5620
0.690312,0.6169,-0.7152,-1.9143,0.3123,1.3401,-0.5620
0.691081,0.6169,-0.7152,-1.9143,0.3245,1.3878,-0.5925
0.691829,0.6147,-0.7126,-2.0404,0.3245,1.3878,-0.5925
0.692709,0.6147,-0.7126,-2.0404,0.3245,1.3878,-0.5925
0.693172,0.6147,-0.7126,-2.0404,0.3391,1.4378,-0.6205
0.693875,0.6348,-0.6502,-2.1349,0.3391,1.4378,-0.6205
0.694516,0.6348,-0.6502,-2.1349,0.3391,1.4378,-0.6205
0.695031,0.6348,-0.6502,-2.1349,0.3550,1.4904,-0.6487
0.695646,0.6263,-0.6290,-2.2310,0.3550,1.4904,-0.6487
0.700382,0.6263,-0.6290,-2.2310,0.3550,1.4904,-0.6487
0.700661,0.6263,-0.6290,-2.2310,0.3660,1.5441,-0.6743
0.700974,0.5869,-0.6099,-2.3248,0.3660,1.5441,-0.6743
0.701665,0.5869,-0.6099,-2.3248,0.3660,1.5441,-0.6743
0.702071,0.5869,-0.6099,-2.3248,0.3745,1.6039,-0.6988
0.702499,0.5332,-0.5597,-2.4300,0.3745,1.6039,-0.6988
0.702964,0.5332,-0.5597,-2.4300,0.3745,1.6039,-0.6988
0.703308,0.5332,-0.5597,-2.4300,0.3806,1.6662,-0.7208
0.703783,0.5469,-0.5425,-2.5276,0.3806,1.6662,-0.7208
0.704324,0.5469,-0.5425,-2.5276,0.3806,1.6662,-0.7208
0.704694,0.5469,-0.5425,-2.5276,0.3868,1.7310,-0.7440
0.705180,0.5561,-0.5354,-2.5977,0.3868,1.7310,-0.7440
0.710427,0.5561,-0.5354,-2.5977,0.3868,1.7310,-0.7440
0.711361,0.5561,-0.5354,-2.5977,0.3893,1.7958,-0.7635
0.712027,0.4799,-0.5261,-2.7132,0.3893,1.7958,-0.7635
0.712627,0.4799,-0.5261,-2.7132,0.3893,1.7958,-0.7635
0.712974,0.4799,-0.5261,-2.7132,0.3893,1.8605,-0.7831
0.713411,0.4373,-0.5426,-2.8092,0.3893,1.8605,-0.7831
0.713858,0.4373,-0.5426,-2.8092,0.3893,1.8605,-0.7831
0.714186,0.4373,-0.5426,-2.8092,0.3868,1.9265,-0.8001
0.714602,0.3830,-0.5039,-2.8558,0.3868,1.9265,-0.8001
0.715054,0.3830,-0.5039,-2.8558,0.3868,1.9265,-0.8001
0.715380,0.3830,-0.5039,-2.8558,0.3831,1.9961,-0.8161
0.715802,0.3264,-0.4809,-2.8937,0.3831,1.9961,-0.8161
0.716335,0.3264,-0.4809,-2.8937,0.3831,1.9961,-0.8161
0.716675,0.3264,-0.4809,-2.8937,0.3758,2.0608,-0.8283
0.717171,0.2634,-0.4466,-2.9280,0.3758,2.0608,-0.8283
0.719990,0.2634,-0.4466,-2.9280,0.3758,2.0608,-0.8283
0.720455,0.2634,-0.4466,-2.9280,0.3648,2.1268,-0.8381
0.720952,0.1307,-0.4380,-2.9686,0.3648,2.1268,-0.8381
0.723440,0.1307,-0.4380,-2.9686,0.3648,2.1268,-0.8381
0.724111,0.1307,-0.4380,-2.9686,0.3525,2.1928,-0.8466
0.724813,0.1320,-0.4451,-3.0053,0.3525,2.1928,-0.8466
0.725402,0.0300,-0.4691,-3.0293,0.3525,2.1928,-0.8466
0.725862,0.0300,-0.4691,-3.0293,0.3525,2.1928,-0.8466
0.726127,0.0300,-0.4691,-3.0293,0.3367,2.2599,-0.8515
0.727974,0.0300,-0.4691,-3.0293,0.3367,2.2599,-0.8515
0.728332,0.0300,-0.4691,-3.0293,0.3208,2.3236,-0.8551
0.728697,0.0636,-0.4943,-3.0295,0.3208,2.3236,-0.8551
0.729035,0.0366,-0.5633,-3.0175,0.3208,2.3236,-0.8551
0.729382,0.0366,-0.5633,-3.0175,0.3208,2.3236,-0.8551
0.729602,0.0366,-0.5633,-3.0175,0.3000,2.3882,-0.8576
0.729920,0.0366,-0.5633,-3.0175,0.3000,2.3882,-0.8576
0.730150,0.0366,-0.5633,-3.0175,0.2768,2.4555,-0.8601
0.730463,0.0639,-0.5688,-2.9642,0.2768,2.4555,-0.8601
0.732514,0.0639,-0.5688,-2.9642,0.2768,2.4555,-0.8601
0.732776,0.0639,-0.5688,-2.9642,0.2512,2.5202,-0.8624
0.733124,0.1066,-0.5878,-2.9422,0.2512,2.5202,-0.8624
0.734540,0.1066,-0.5878,-2.9422,0.2512,2.5202,-0.8624
0.735158,0.1066,-0.5878,-2.9422,0.2243,2.5838,-0.8649
0.735963,0.1535,-0.6139,-2.8557,0.2243,2.5838,-0.8649
0.739399,0.1535,-0.6139,-2.8557,0.2243,2.5838,-0.8649
0.740306,0.1535,-0.6139,-2.8557,0.1925,2.6460,-0.8723
0.741302,0.2416,-0.6501,-2.7915,0.1925,2.6460,-0.8723
0.742026,0.2416,-0.6501,-2.7915,0.1925,2.6460,-0.8723
0.742451,0.2416,-0.6501,-2.7915,0.1620,2.7072,-0.8808
0.743111,0.2739,-0.6735,-2.6787,0.1620,2.7072,-0.8808
0.743840,0.2739,-0.6735,-2.6787,0.1620,2.7072,-0.8808
0.744512,0.2739,-0.6735,-2.6787,0.1290,2.7646,-0.8942
0.745104,0.3295,-0.7089,-2.5402,0.1290,2.7646,-0.8942
0.745582,0.3295,-0.7089,-2.5402,0.1290,2.7646,-0.8942
0.745923,0.3295,-0.7089,-2.5402,0.0972,2.8146,-0.9114
0.746457,0.3631,-0.7732,-2.3902,0.0972,2.8146,-0.9114
0.746984,0.3631,-0.7732,-2.3902,0.0972,2.8146,-0.9114
0.747297,0.3631,-0.7732,-2.3902,0.0679,2.8551,-0.9248
0.747732,0.3773,-0.8295,-2.2156,0.0679,2.8551,-0.9248
0.752108,0.3773,-0.8295,-2.2156,0.0679,2.8551,-0.9248
0.752502,0.3773,-0.8295,-2.2156,0.0410,2.8856,-0.9468
0.753008,0.4442,-0.9069,-2.0996,0.0410,2.8856,-0.9468
0.753517,0.4442,-0.9069,-2.0996,0.0410,2.8856,-0.9468
0.753828,0.4442,-0.9069,-2.0996,0.0129,2.9124,-0.9736
0.754250,0.5377,-0.9833,-2.0100,0.0129,2.9124,-0.9736
0.758792,0.5377,-0.9833,-2.0100,0.0129,2.9124,-0.9736
0.759750,0.5377,-0.9833,-2.0100,-0.0140,2.9307,-1.0006
0.760610,0.6423,-1.0967,-1.8417,-0.0140,2.9307,-1.0006
0.761181,0.6303,-1.1916,-1.7967,-0.0140,2.9307,-1.0006
0.761657,0.6303,-1.1916,-1.7967,-0.0140,2.9307,-1.0006
0.761938,0.6303,-1.1916,-1.7967,-0.0408,2.9393,-1.0311
0.762397,0.6303,-1.1916,-1.7967,-0.0408,2.9393,-1.0311
0.762694,0.6303,-1.1916,-1.7967,-0.0653,2.9417,-1.0629
0.763079,0.6002,-1.3628,-1.8160,-0.0653,2.9417,-1.0629
0.766887,0.6002,-1.3628,-1.8160,-0.0653,2.9417,-1.0629
0.767491,0.6002,-1.3628,-1.8160,-0.0886,2.9429,-1.0959
0.768082,0.6750,-1.4998,-1.7800,-0.0886,2.9429,-1.0959
0.768633,0.6750,-1.4998,-1.7800,-0.0886,2.9429,-1.0959
0.768931,0.6750,-1.4998,-1.7800,-0.1104,2.9404,-1.1300
0.769580,0.7678,-1.6277,-1.7571,-0.1104,2.9404,-1.1300
0.770119,0.7577,-1.7667,-1.8651,-0.1104,2.9404,-1.1300
0.770611,0.7577,-1.7667,-1.8651,-0.1104,2.9404,-1.1300
0.770908,0.7577,-1.7667,-1.8651,-0.1349,2.9429,-1.1654
0.771294,0.7577,-1.7667,-1.8651,-0.1349,2.9429,-1.1654
0.771585,0.7577,-1.7667,-1.8651,-0.1569,2.9441,-1.2022
0.772091,0.7637,-1.9126,-1.8811,-0.1569,2.9441,-1.2022
0.777858,0.7637,-1.9126,-1.8811,-0.1814,2.9491,-1.2400
0.778579,0.7637,-1.9126,-1.8811,-0.1814,2.9491,-1.2400
0.779082,1.0718,-2.0011,-1.9749,-0.1814,2.9491,-1.2400
0.779867,1.0718,-2.0011,-1.9749,-0.2082,2.9832,-1.2852
0.780635,1.0718,-2.0011,-1.9749,-0.2082,2.9832,-1.2852
0.780936,1.5408,-2.9960,-3.4190,-0.2082,2.9832,-1.2852
0.781384,1.3617,-3.0151,-3.5259,-0.2082,2.9832,-1.2852
0.781791,1.3617,-3.0151,-3.5259,-0.2571,3.0797,-1.3487
0.782141,1.3617,-3.0151,-3.5259,-0.2571,3.0797,-1.3487
0.782379,1.0287,-2.7061,-2.8769,-0.2571,3.0797,-1.3487
0.782784,1.0287,-2.7061,-2.8769,-0.2571,3.0797,-1.3487
0.783018,1.0287,-2.7061,-2.8769,-0.3047,3.1372,-1.4050
0.783388,1.0287,-2.7061,-2.8769,-0.3047,3.1372,-1.4050
0.783634,1.0287,-2.7061,-2.8769,-0.3414,3.1457,-1.4477
0.783961,1.0358,-2.4159,-2.3194,-0.3414,3.1457,-1.4477
0.784441,1.0358,-2.4159,-2.3194,-0.3414,3.1457,-1.4477
0.784689,1.0358,-2.4159,-2.3194,-0.3744,3.1299,-1.4868
0.785024,0.9684,-2.2634,-2.0366,-0.3744,3.1299,-1.4868
0.785415,0.9684,-2.2634,-2.0366,-0.3744,3.1299,-1.4868
0.785686,0.9684,-2.2634,-2.0366,-0.4049,3.1127,-1.5186
0.786093,0.9225,-2.0437,-1.9847,-0.4049,3.1127,-1.5186
0.795734,0.9225,-2.0437,-1.9847,-0.4049,3.1127,-1.5186
0.796204,0.9225,-2.0437,-1.9847,-0.4355,3.1030,-1.5418
0.796693,0.8973,-1.9122,-2.0863,-0.4355,3.1030,-1.5418
0.797163,0.8973,-1.9122,-2.0863,-0.4355,3.1030,-1.5418
0.797425,0.8973,-1.9122,-2.0863,-0.4720,3.1067,-1.5613
0.797853,0.9970,-1.8576,-2.2815,-0.4720,3.1067,-1.5613
0.798303,0.9970,-1.8576,-2.2815,-0.4720,3.1067,-1.5613
0.798633,0.9970,-1.8576,-2.2815,-0.5112,3.1274,-1.5796
0.799059,1.0727,-1.9248,-2.4092,-0.5112,3.1274,-1.5796
0.799467,1.0727,-1.9248,-2.4092,-0.5112,3.1274,-1.5796
0.799729,1.0727,-1.9248,-2.4092,-0.5503,3.1457,-1.5991
0.800156,1.4206,-1.8821,-2.5223,-0.5503,3.1457,-1.5991
0.800613,1.4206,-1.8821,-2.5223,-0.5503,3.1457,-1.5991
0.800862,1.4206,-1.8821,-2.5223,-0.5845,3.1629,-1.6186
0.801258,1.4874,-1.9051,-2.4407,-0.5845,3.1629,-1.6186
0.801665,1.4874,-1.9051,-2.4407,-0.5845,3.1629,-1.6186
0.801902,1.4874,-1.9051,-2.4407,-0.6200,3.1751,-1.6419
0.802282,1.7371,-1.7162,-2.4806,-0.6200,3.1751,-1.6419
0.806099,1.7371,-1.7162,-2.4806,-0.6528,3.1849,-1.6712
0.807157,1.9636,-1.5493,-2.3115,-0.6528,3.1849,-1.6712
0.807907,1.9636,-1.5493,-2.3115,-0.6528,3.1849,-1.6712
0.808685,1.9636,-1.5493,-2.3115,-0.6798,3.1934,-1.7054
0.809664,2.0306,-1.3194,-2.2494,-0.6798,3.1934,-1.7054
0.810174,2.0306,-1.3194,-2.2494,-0.6798,3.1934,-1.7054
0.810448,1.9987,-1.2424,-2.1294,-0.6798,3.1934,-1.7054
0.810892,1.9987,-1.2424,-2.1294,-0.6798,3.1934,-1.7054
0.811168,1.9987,-1.2424,-2.1294,-0.7078,3.1959,-1.7469
0.811560,1.9987,-1.2424,-2.1294,-0.7078,3.1959,-1.7469
0.811807,1.9987,-1.2424,-2.1294,-0.7336,3.1947,-1.7909
0.812292,1.8438,-1.1587,-2.1245,-0.7336,3.1947,-1.7909
0.812690,1.8438,-1.1587,-2.1245,-0.7336,3.1947,-1.7909
0.812932,1.8438,-1.1587,-2.1245,-0.7568,3.1910,-1.8337
0.813289,1.6917,-1.2317,-2.1778,-0.7568,3.1910,-1.8337
0.813687,1.6917,-1.2317,-2.1778,-0.7568,3.1910,-1.8337
0.813919,1.6917,-1.2317,-2.1778,-0.7811,3.1872,-1.8716
0.814261,1.6003,-1.2895,-2.2298,-0.7811,3.1872,-1.8716
0.820579,1.6003,-1.2895,-2.2298,-0.7811,3.1872,-1.8716
0.820918,1.6003,-1.2895,-2.2298,-0.8069,3.1837,-1.9082
0.821392,1.5187,-1.4131,-2.2444,-0.8069,3.1837,-1.9082
0.821895,1.5187,-1.4131,-2.2444,-0.8069,3.1837,-1.9082
0.822152,1.5187,-1.4131,-2.2444,-0.8288,3.1800,-1.9412
0.822578,1.4446,-1.4774,-2.2493,-0.8288,3.1800,-1.9412
0.822997,1.4446,-1.4774,-2.2493,-0.8288,3.1800,-1.9412
0.823234,1.4446,-1.4774,-2.2493,-0.8508,3.1714,-1.9718
0.823587,1.3262,-1.5486,-2.1930,-0.8508,3.1714,-1.9718
0.824000,1.3262,-1.5486,-2.1930,-0.8508,3.1714,-1.9718
0.824326,1.3262,-1.5486,-2.1930,-0.8729,3.1604,-1.9975
0.824684,1.1622,-1.5836,-2.1251,-0.8729,3.1604,-1.9975
0.827829,1.1622,-1.5836,-2.1251,-0.8729,3.1604,-1.9975
0.828944,1.1622,-1.5836,-2.1251,-0.8936,3.1445,-2.0207
0.829771,1.0496,-1.6066,-2.0139,-0.8936,3.1445,-2.0207
0.830627,1.0496,-1.6066,-2.0139,-0.8936,3.1445,-2.0207
0.830893,1.0496,-1.6066,-2.0139,-0.9119,3.1225,-2.0390
0.831242,1.0631,-1.5873,-1.8788,-0.9119,3.1225,-2.0390
0.831596,0.9120,-1.6803,-1.7668,-0.9119,3.1225,-2.0390
0.831951,0.9120,-1.6803,-1.7668,-0.9119,3.1225,-2.0390
0.832231,0.9120,-1.6803,-1.7668,-0.9314,3.0969,-2.0548
0.832578,0.9120,-1.6803,-1.7668,-0.9314,3.0969,-2.0548
0.832827,0.9120,-1.6803,-1.7668,-0.9499,3.0737,-2.0695
0.833170,0.8709,-1.7501,-1.6690,-0.9499,3.0737,-2.0695
0.836141,0.8709,-1.7501,-1.6690,-0.9499,3.0737,-2.0695
0.836480,0.8709,-1.7501,-1.6690,-0.9669,3.0566,-2.0780
0.836916,0.9109,-1.7959,-1.5709,-0.9669,3.0566,-2.0780
0.837316,0.9109,-1.7959,-1.5709,-0.9669,3.0566,-2.0780
0.837554,0.9109,-1.7959,-1.5709,-0.9840,3.0444,-2.0915
0.837929,1.0012,-1.9530,-1.5666,-0.9840,3.0444,-2.0915
0.839982,1.0012,-1.9530,-1.5666,-0.9840,3.0444,-2.0915
0.840796,1.0012,-1.9530,-1.5666,-0.9987,3.0382,-2.1025
0.841550,1.0348,-1.9819,-1.3809,-0.9987,3.0382,-2.1025
0.842303,1.0348,-1.9819,-1.3809,-0.9987,3.0382,-2.1025
0.842726,1.0348,-1.9819,-1.3809,-1.0097,3.0236,-2.1147
0.843537,1.0744,-2.0337,-1.1630,-1.0097,3.0236,-2.1147
0.844551,1.0744,-2.0337,-1.1630,-1.0097,3.0236,-2.1147
0.844829,1.0744,-2.0337,-1.1630,-1.0207,3.0126,-2.1282
0.845226,1.1472,-2.0726,-1.0069,-1.0207,3.0126,-2.1282
0.847691,1.1472,-2.0726,-1.0069,-1.0207,3.0126,-2.1282
0.847998,1.1472,-2.0726,-1.0069,-1.0244,3.0016,-2.1403
0.848460,1.2939,-2.0955,-0.8409,-1.0244,3.0016,-2.1403
0.848856,1.2939,-2.0955,-0.8409,-1.0244,3.0016,-2.1403
0.849108,1.2939,-2.0955,-0.8409,-1.0244,2.9931,-2.1588
0.849438,1.3787,-2.1733,-0.6526,-1.0244,2.9931,-2.1588
0.850890,1.3787,-2.1733,-0.6526,-1.0244,2.9931,-2.1588
0.851179,1.3787,-2.1733,-0.6526,-1.0194,2.9832,-2.1783
0.851544,1.4962,-2.2641,-0.4745,-1.0194,2.9832,-2.1783
0.854581,1.4962,-2.2641,-0.4745,-1.0194,2.9832,-2.1783
0.855558,1.4962,-2.2641,-0.4745,-1.0097,2.9796,-2.2003
0.856483,1.6866,-2.3678,-0.3472,-1.0097,2.9796,-2.2003
0.857342,1.6866,-2.3678,-0.3472,-1.0097,2.9796,-2.2003
0.857890,1.6866,-2.3678,-0.3472,-0.9926,2.9784,-2.2259
0.858611,1.9410,-2.4242,-0.1809,-0.9926,2.9784,-2.2259
0.859267,1.9410,-2.4242,-0.1809,-0.9926,2.9784,-2.2259
0.859763,1.9410,-2.4242,-0.1809,-0.9657,2.9821,-2.2565
0.860556,2.1140,-2.5224,-0.0097,-0.9657,2.9821,-2.2565
0.861187,2.1140,-2.5224,-0.0097,-0.9657,2.9821,-2.2565
0.861579,2.1140,-2.5224,-0.0097,-0.9351,2.9906,-2.2906
0.862191,2.3404,-2.5196,0.0589,-0.9351,2.9906,-2.2906
0.862836,2.3404,-2.5196,0.0589,-0.9351,2.9906,-2.2906
0.863228,2.3404,-2.5196,0.0589,-0.8961,3.0016,-2.3321
0.863799,2.5529,-2.5615,0.1847,-0.8961,3.0016,-2.3321
0.869254,2.5529,-2.5615,0.1847,-0.8961,3.0016,-2.3321
0.869730,2.5529,-2.5615,0.1847,-0.8508,3.0174,-2.3786
0.870381,2.6936,-2.5541,0.2800,-0.8508,3.0174,-2.3786
0.871030,2.6936,-2.5541,0.2800,-0.8508,3.0174,-2.3786
0.871520,2.6936,-2.5541,0.2800,-0.7996,3.0359,-2.4274
0.872186,2.8237,-2.5354,0.3826,-0.7996,3.0359,-2.4274
0.872827,2.8237,-2.5354,0.3826,-0.7996,3.0359,-2.4274
0.873253,2.8237,-2.5354,0.3826,-0.7433,3.0529,-2.4824
0.873848,3.0131,-2.4339,0.4927,-0.7433,3.0529,-2.4824
0.874531,3.0131,-2.4339,0.4927,-0.7433,3.0529,-2.4824
0.874936,3.0131,-2.4339,0.4927,-0.6786,3.0602,-2.5459
0.875495,3.5583,-1.9998,0.5828,-0.6786,3.0602,-2.5459
0.876147,3.5583,-1.9998,0.5828,-0.6786,3.0602,-2.5459
0.876568,3.5583,-1.9998,0.5828,-0.6113,3.0627,-2.6254
0.877244,3.7947,-1.8259,0.6714,-0.6113,3.0627,-2.6254
0.877865,3.7947,-1.8259,0.6714,-0.6113,3.0627,-2.6254
0.878262,3.7947,-1.8259,0.6714,-0.5380,3.0577,-2.7122
0.878867,3.8506,-1.8020,0.6884,-0.5380,3.0577,-2.7122
0.879461,3.8506,-1.8020,0.6884,-0.5380,3.0577,-2.7122
0.879884,3.8506,-1.8020,0.6884,-0.4635,3.0456,-2.7989
0.880483,3.8440,-1.7938,0.6211,-0.4635,3.0456,-2.7989
0.883124,3.8440,-1.7938,0.6211,-0.4635,3.0456,-2.7989
0.883811,3.8440,-1.7938,0.6211,-0.3890,3.0322,-2.8856
0.884725,3.7463,-1.8233,0.4936,-0.3890,3.0322,-2.8856
0.885413,3.7463,-1.8233,0.4936,-0.3890,3.0322,-2.8856
0.885871,3.7463,-1.8233,0.4936,-0.3145,3.0187,-2.9699
0.886466,3.5312,-1.8456,0.3687,-0.3145,3.0187,-2.9699
0.887097,3.5312,-1.8456,0.3687,-0.3145,3.0187,-2.9699
0.887501,3.5312,-1.8456,0.3687,-0.2437,2.9967,-3.0456
0.888130,3.1830,-1.8878,0.3159,-0.2437,2.9967,-3.0456
0.888702,3.1830,-1.8878,0.3159,-0.2437,2.9967,-3.0456
0.889101,3.1830,-1.8878,0.3159,-0.1777,2.9674,-3.1153
0.889628,2.7668,-1.9372,0.2172,-0.1777,2.9674,-3.1153
0.894652,2.7668,-1.9372,0.2172,-0.1777,2.9674,-3.1153
0.894955,2.7668,-1.9372,0.2172,-0.1178,2.9332,-3.1727
0.895288,2.4274,-1.9667,0.1454,-0.1178,2.9332,-3.1727
0.895668,2.4274,-1.9667,0.1454,-0.1178,2.9332,-3.1727
0.895914,2.4274,-1.9667,0.1454,-0.0591,2.8953,-3.2204
0.896281,2.0475,-2.0104,0.1281,-0.0591,2.8953,-3.2204
0.896618,2.0475,-2.0104,0.1281,-0.0591,2.8953,-3.2204
0.896835,2.0475,-2.0104,0.1281,-0.0091,2.8561,-3.2546
0.897117,1.7924,-2.0082,0.0647,-0.0091,2.8561,-3.2546
0.900287,1.7924,-2.0082,0.0647,-0.0091,2.8561,-3.2546
0.901036,1.7924,-2.0082,0.0647,0.0349,2.8110,-3.2864
0.901688,1.8934,-1.8777,-0.0865,0.0349,2.8110,-3.2864
0.902322,1.8934,-1.8777,-0.0865,0.0349,2.8110,-3.2864
0.902795,1.8934,-1.8777,-0.0865,0.0679,2.7719,-3.3194
0.903458,1.9064,-1.8086,-0.1888,0.0679,2.7719,-3.3194
0.904108,1.9064,-1.8086,-0.1888,0.0679,2.7719,-3.3194
0.904541,1.9064,-1.8086,-0.1888,0.0972,2.7450,-3.3547
0.905293,1.7805,-1.7691,-0.2898,0.0972,2.7450,-3.3547
0.906122,1.7805,-1.7691,-0.2898,0.0972,2.7450,-3.3547
0.906586,1.7805,-1.7691,-0.2898,0.1217,2.7378,-3.3853
0.907031,1.4619,-1.8390,-0.3874,0.1217,2.7378,-3.3853
0.907542,1.4619,-1.8390,-0.3874,0.1217,2.7378,-3.3853
0.907862,1.4619,-1.8390,-0.3874,0.1375,2.7450,-3.4097
0.908374,1.3690,-1.8335,-0.5063,0.1375,2.7450,-3.4097
0.913118,1.3690,-1.8335,-0.5063,0.1375,2.7450,-3.4097
0.913448,1.3690,-1.8335,-0.5063,0.1460,2.7658,-3.4293
0.913880,1.1717,-1.9180,-0.5365,0.1460,2.7658,-3.4293
0.914360,1.1717,-1.9180,-0.5365,0.1460,2.7658,-3.4293
0.914659,1.1717,-1.9180,-0.5365,0.1510,2.8049,-3.4378
0.915031,0.7181,-1.9927,-0.3950,0.1510,2.8049,-3.4378
0.915451,0.7181,-1.9927,-0.3950,0.1510,2.8049,-3.4378
0.915735,0.7181,-1.9927,-0.3950,0.1570,2.8561,-3.4330
0.916126,0.3493,-2.0543,-0.1708,0.1570,2.8561,-3.4330
0.916625,0.3493,-2.0543,-0.1708,0.1570,2.8561,-3.4330
0.916910,0.3493,-2.0543,-0.1708,0.1668,2.9234,-3.4147
0.917278,0.1028,-2.1218,0.1792,0.1668,2.9234,-3.4147
0.919267,0.1028,-2.1218,0.1792,0.1668,2.9234,-3.4147
0.919850,0.1028,-2.1218,0.1792,0.1840,2.9967,-3.3865
0.920662,0.0225,-2.1873,0.4781,0.1840,2.9967,-3.3865
0.922838,0.0225,-2.1873,0.4781,0.1840,2.9967,-3.3865
0.923545,0.0225,-2.1873,0.4781,0.2060,3.0712,-3.3547
0.924258,0.0471,-2.3002,0.6051,0.2060,3.0712,-3.3547
0.925077,0.0471,-2.3002,0.6051,0.2060,3.0712,-3.3547
0.925538,0.0471,-2.3002,0.6051,0.2305,3.1421,-3.3205
0.926405,0.2193,-2.3934,0.7260,0.2305,3.1421,-3.3205
0.927195,0.2193,-2.3934,0.7260,0.2305,3.1421,-3.3205
0.927617,0.2193,-2.3934,0.7260,0.2585,3.2044,-3.2924
0.928215,0.3391,-2.4733,0.8766,0.2585,3.2044,-3.2924
0.929110,0.3391,-2.4733,0.8766,0.2585,3.2044,-3.2924
0.929586,0.3391,-2.4733,0.8766,0.2927,3.2582,-3.2631
0.929975,0.4793,-2.6002,1.0417,0.2927,3.2582,-3.2631
0.934995,0.4793,-2.6002,1.0417,0.2927,3.2582,-3.2631
0.935365,0.4793,-2.6002,1.0417,0.3343,3.3058,-3.2387
0.935783,0.6150,-2.6706,1.2743,0.3343,3.3058,-3.2387
0.936263,0.6150,-2.6706,1.2743,0.3343,3.3058,-3.2387
0.936499,0.6150,-2.6706,1.2743,0.3806,3.3498,-3.2192
0.936816,0.7780,-2.7422,1.5002,0.3806,3.3498,-3.2192
0.937174,0.7780,-2.7422,1.5002,0.3806,3.3498,-3.2192
0.937403,0.7780,-2.7422,1.5002,0.4320,3.3865,-3.2057
0.937719,1.0001,-2.7832,1.6783,0.4320,3.3865,-3.2057
0.940509,1.0001,-2.7832,1.6783,0.4320,3.3865,-3.2057
0.941180,1.0001,-2.7832,1.6783,0.4858,3.4218,-3.2044
0.941906,1.2211,-2.7906,1.8391,0.4858,3.4218,-3.2044
0.942681,1.2211,-2.7906,1.8391,0.4858,3.4218,-3.2044
0.942962,1.2211,-2.7906,1.8391,0.5456,3.4523,-3.2131
0.943495,1.4180,-2.8034,1.9788,0.5456,3.4523,-3.2131
0.943921,1.4180,-2.8034,1.9788,0.5456,3.4523,-3.2131
0.944261,1.4180,-2.8034,1.9788,0.6104,3.4793,-3.2314
0.944647,1.5957,-2.8879,2.0704,0.6104,3.4793,-3.2314
0.945044,1.5957,-2.8879,2.0704,0.6104,3.4793,-3.2314
0.945281,1.5957,-2.8879,2.0704,0.6764,3.4976,-3.2570
0.945631,1.7275,-2.9296,2.1717,0.6764,3.4976,-3.2570
0.947375,1.7275,-2.9296,2.1717,0.6764,3.4976,-3.2570
0.947632,1.7275,-2.9296,2.1717,0.7435,3.5123,-3.2900
0.947983,1.8034,-3.0341,2.2074,0.7435,3.5123,-3.2900
0.949880,1.8034,-3.0341,2.2074,0.7435,3.5123,-3.2900
0.950398,1.8034,-3.0341,2.2074,0.8132,3.5135,-3.3254
0.951082,1.8426,-3.1830,2.3042,0.8132,3.5135,-3.3254
0.954578,1.8426,-3.1830,2.3042,0.8132,3.5135,-3.3254
0.955109,1.8426,-3.1830,2.3042,0.8803,3.5025,-3.3657
0.955596,1.8328,-3.2871,2.3271,0.8803,3.5025,-3.3657
0.956071,1.8328,-3.2871,2.3271,0.8803,3.5025,-3.3657
0.956365,1.8328,-3.2871,2.3271,0.9463,3.4768,-3.4085
0.956786,1.7052,-3.3726,2.3420,0.9463,3.4768,-3.4085
0.957221,1.7052,-3.3726,2.3420,0.9463,3.4768,-3.4085
0.957470,1.7052,-3.3726,2.3420,1.0086,3.4378,-3.4537
0.957870,1.6043,-3.4508,2.2804,1.0086,3.4378,-3.4537
0.959367,1.6043,-3.4508,2.2804,1.0086,3.4378,-3.4537
0.959745,1.6043,-3.4508,2.2804,1.0673,3.3888,-3.4965
0.960255,1.4329,-3.5170,2.1893,1.0673,3.3888,-3.4965
0.962194,1.4329,-3.5170,2.1893,1.0673,3.3888,-3.4965
0.962490,1.4329,-3.5170,2.1893,1.1198,3.3303,-3.5380
0.962903,1.2254,-3.5112,2.0923,1.1198,3.3303,-3.5380
0.964133,1.2254,-3.5112,2.0923,1.1198,3.3303,-3.5380
0.964647,1.2254,-3.5112,2.0923,1.1650,3.2607,-3.5783
0.965315,0.9861,-3.4463,1.9944,1.1650,3.2607,-3.5783
0.967283,0.9861,-3.4463,1.9944,1.1650,3.2607,-3.5783
0.967578,0.9861,-3.4463,1.9944,1.2028,3.1812,-3.6150
0.967990,0.7983,-3.4404,1.9092,1.2028,3.1812,-3.6150
0.970144,0.7983,-3.4404,1.9092,1.2028,3.1812,-3.6150
0.970908,0.7983,-3.4404,1.9092,1.2358,3.0932,-3.6468
0.971641,0.6663,-3.3501,1.8405,1.2358,3.0932,-3.6468
0.972420,0.6663,-3.3501,1.8405,1.2358,3.0932,-3.6468
0.973013,0.6663,-3.3501,1.8405,1.2603,2.9979,-3.6773
0.973866,0.5963,-3.2833,1.7396,1.2603,2.9979,-3.6773
0.974486,0.5963,-3.2833,1.7396,1.2603,2.9979,-3.6773
0.974934,0.5963,-3.2833,1.7396,1.2799,2.9014,-3.7066
0.975564,0.5670,-3.1877,1.6090,1.2799,2.9014,-3.7066
0.976330,0.5670,-3.1877,1.6090,1.2799,2.9014,-3.7066
0.976886,0.5670,-3.1877,1.6090,1.2909,2.8025,-3.7335
0.977525,0.5405,-3.1093,1.5144,1.2909,2.8025,-3.7335
0.982301,0.5405,-3.1093,1.5144,1.2909,2.8025,-3.7335
0.982685,0.5405,-3.1093,1.5144,1.2921,2.7072,-3.7603
0.983159,0.6005,-2.9757,1.4175,1.2921,2.7072,-3.7603
0.983664,0.6005,-2.9757,1.4175,1.2921,2.7072,-3.7603
0.984008,0.6005,-2.9757,1.4175,1.2871,2.6155,-3.7824
0.984529,0.6551,-2.8905,1.2477,1.2871,2.6155,-3.7824
0.985033,0.6551,-2.8905,1.2477,1.2871,2.6155,-3.7824
0.985393,0.6551,-2.8905,1.2477,1.2737,2.5264,-3.8019
0.985933,0.7194,-2.7456,1.0820,1.2737,2.5264,-3.8019
0.986456,0.7194,-2.7456,1.0820,1.2737,2.5264,-3.8019
0.986784,0.7194,-2.7456,1.0820,1.2529,2.4432,-3.8226
0.987317,0.7889,-2.6013,0.8935,1.2529,2.4432,-3.8226
0.987849,0.7889,-2.6013,0.8935,1.2529,2.4432,-3.8226
0.988264,0.7889,-2.6013,0.8935,1.2273,2.3700,-3.8446
0.988774,0.7793,-2.4256,0.6869,1.2273,2.3700,-3.8446
0.994469,0.7793,-2.4256,0.6869,1.2273,2.3700,-3.8446
0.995121,0.7793,-2.4256,0.6869,1.1943,2.3077,-3.8629
0.996553,0.7644,-2.2885,0.4844,1.1943,2.3077,-3.8629
0.997556,0.7644,-2.2885,0.4844,1.1943,2.3077,-3.8629
0.998146,0.7644,-2.2885,0.4844,1.1588,2.2551,-3.8814
0.998892,0.7049,-2.1386,0.2461,1.1588,2.2551,-3.8814
0.999714,0.7049,-2.1386,0.2461,1.1588,2.2551,-3.8814
1.000139,0.7049,-2.1386,0.2461,1.1161,2.2111,-3.8996
1.000701,0.6180,-1.9763,0.0304,1.1161,2.2111,-3.8996
1.001185,0.6180,-1.9763,0.0304,1.1161,2.2111,-3.8996
1.001572,0.6180,-1.9763,0.0304,1.0721,2.1806,-3.9167
1.002115,0.4945,-1.8666,-0.1847,1.0721,2.1806,-3.9167
1.002664,0.4945,-1.8666,-0.1847,1.0721,2.1806,-3.9167
1.003035,0.4945,-1.8666,-0.1847,1.0245,2.1659,-3.9351
1.003666,0.3383,-1.7511,-0.3896,1.0245,2.1659,-3.9351
1.013110,0.3383,-1.7511,-0.3896,0.9756,2.1598,-3.9522
1.013810,0.1713,-1.6007,-0.5344,0.9756,2.1598,-3.9522
1.014350,0.1713,-1.6007,-0.5344,0.9756,2.1598,-3.9522
1.014733,0.0164,-1.6577,-0.7354,0.9756,2.1598,-3.9522
1.015387,0.0164,-1.6577,-0.7354,0.9756,2.1598,-3.9522
1.015764,0.0164,-1.6577,-0.7354,0.9255,2.1623,-3.9692
1.016323,0.0164,-1.6577,-0.7354,0.9255,2.1623,-3.9692
1.016678,0.0164,-1.6577,-0.7354,0.8742,2.1746,-3.9852
1.017298,-0.2196,-1.6119,-0.7967,0.8742,2.1746,-3.9852
1.017808,-0.2196,-1.6119,-0.7967,0.8742,2.1746,-3.9852
1.018168,-0.2196,-1.6119,-0.7967,0.8254,2.1879,-4.0010
1.018696,-0.4431,-1.6276,-0.8207,0.8254,2.1879,-4.0010
1.019190,-0.4431,-1.6276,-0.8207,0.8254,2.1879,-4.0010
1.019497,-0.4431,-1.6276,-0.8207,0.7777,2.2026,-4.0145
1.019934,-0.6732,-1.6373,-0.7988,0.7777,2.2026,-4.0145
1.020441,-0.6732,-1.6373,-0.7988,0.7777,2.2026,-4.0145
1.020716,-0.6732,-1.6373,-0.7988,0.7337,2.2148,-4.0254
1.021140,-0.9581,-1.6809,-0.7446,0.7337,2.2148,-4.0254
1.021565,-0.9581,-1.6809,-0.7446,0.7337,2.2148,-4.0254
1.021826,-0.9581,-1.6809,-0.7446,0.6922,2.2271,-4.0340
1.022183,-1.1938,-1.6829,-0.7354,0.6922,2.2271,-4.0340
1.022532,-1.1938,-1.6829,-0.7354,0.6922,2.2271,-4.0340
1.022795,-1.1938,-1.6829,-0.7354,0.6519,2.2392,-4.0377
1.023196,-1.4373,-1.6601,-0.7021,0.6519,2.2392,-4.0377
1.023572,-1.4373,-1.6601,-0.7021,0.6519,2.2392,-4.0377
1.023823,-1.4373,-1.6601,-0.7021,0.6152,2.2478,-4.0364
1.024315,-1.7034,-1.6548,-0.6072,0.6152,2.2478,-4.0364
1.024735,-1.7034,-1.6548,-0.6072,0.6152,2.2478,-4.0364
1.024987,-1.7034,-1.6548,-0.6072,0.5811,2.2527,-4.0304
1.025390,-1.9586,-1.6707,-0.5123,0.5811,2.2527,-4.0304
1.025838,-1.9586,-1.6707,-0.5123,0.5811,2.2527,-4.0304
1.026143,-1.9586,-1.6707,-0.5123,0.5468,2.2490,-4.0206
1.026574,-2.2115,-1.7220,-0.4007,0.5468,2.2490,-4.0206
1.031848,-2.2115,-1.7220,-0.4007,0.5468,2.2490,-4.0206
1.032274,-2.2115,-1.7220,-0.4007,0.5186,2.2381,-4.0034
1.032735,-2.4513,-1.7728,-0.3086,0.5186,2.2381,-4.0034
1.033172,-2.4513,-1.7728,-0.3086,0.5186,2.2381,-4.0034
1.033427,-2.4513,-1.7728,-0.3086,0.4906,2.2148,-3.9839
1.033781,-2.7000,-1.8188,-0.1989,0.4906,2.2148,-3.9839
1.034238,-2.7000,-1.8188,-0.1989,0.4906,2.2148,-3.9839
1.034496,-2.7000,-1.8188,-0.1989,0.4649,2.1794,-3.9571
1.034912,-2.9867,-1.8615,-0.0772,0.4649,2.1794,-3.9571
1.035352,-2.9867,-1.8615,-0.0772,0.4649,2.1794,-3.9571
1.035603,-2.9867,-1.8615,-0.0772,0.4393,2.1293,-3.9289
1.035969,-3.2347,-1.9157,0.0295,0.4393,2.1293,-3.9289
1.039241,-3.2347,-1.9157,0.0295,0.4393,2.1293,-3.9289
1.039592,-3.2347,-1.9157,0.0295,0.4161,2.0694,-3.8959
1.040090,-3.4456,-1.9495,0.1410,0.4161,2.0694,-3.8959
1.040518,-3.4456,-1.9495,0.1410,0.4161,2.0694,-3.8959
1.040839,-3.4456,-1.9495,0.1410,0.3928,2.0046,-3.8593
1.041241,-3.6325,-1.9192,0.2214,0.3928,2.0046,-3.8593
1.042954,-3.6325,-1.9192,0.2214,0.3928,2.0046,-3.8593
1.043422,-3.6325,-1.9192,0.2214,0.3708,1.9388,-3.8191
1.044138,-3.7783,-1.8905,0.1775,0.3708,1.9388,-3.8191
1.045197,-3.7783,-1.8905,0.1775,0.3708,1.9388,-3.8191
1.045647,-3.7783,-1.8905,0.1775,0.3501,1.8752,-3.7763
1.046233,-3.8982,-1.7946,0.1716,0.3501,1.8752,-3.7763
1.048214,-3.8982,-1.7946,0.1716,0.3501,1.8752,-3.7763
1.048666,-3.8982,-1.7946,0.1716,0.3257,1.8165,-3.7348
1.049262,-3.9947,-1.7067,0.1137,0.3257,1.8165,-3.7348
1.049814,-3.9947,-1.7067,0.1137,0.3257,1.8165,-3.7348
1.050197,-3.9947,-1.7067,0.1137,0.3037,1.7652,-3.6883
1.050691,-4.0609,-1.6016,0.1009,0.3037,1.7652,-3.6883
1.059304,-4.0609,-1.6016,0.1009,0.3037,1.7652,-3.6883
1.059878,-4.0609,-1.6016,0.1009,0.2805,1.7212,-3.6418
1.060560,-4.1476,-1.5274,0.0753,0.2805,1.7212,-3.6418
1.061172,-4.1476,-1.5274,0.0753,0.2805,1.7212,-3.6418
1.061570,-4.1476,-1.5274,0.0753,0.2573,1.6870,-3.5930
1.062179,-4.2577,-1.4782,0.0854,0.2573,1.6870,-3.5930
1.062864,-4.2577,-1.4782,0.0854,0.2573,1.6870,-3.5930
1.063320,-4.2577,-1.4782,0.0854,0.2340,1.6577,-3.5392
1.063910,-4.3320,-1.4379,0.0999,0.2340,1.6577,-3.5392
1.064497,-4.3320,-1.4379,0.0999,0.2340,1.6577,-3.5392
1.064824,-4.3320,-1.4379,0.0999,0.2133,1.6419,-3.4892
1.065138,-4.3877,-1.4197,0.1303,0.2133,1.6419,-3.4892
1.065542,-4.3877,-1.4197,0.1303,0.2133,1.6419,-3.4892
1.065786,-4.3877,-1.4197,0.1303,0.1962,1.6345,-3.4402
1.066115,-4.4224,-1.4333,0.2085,0.1962,1.6345,-3.4402
1.066474,-4.4224,-1.4333,0.2085,0.1962,1.6345,-3.4402
1.066690,-4.4224,-1.4333,0.2085,0.1803,1.6382,-3.3950
1.067018,-4.4592,-1.4459,0.2588,0.1803,1.6382,-3.3950
1.067343,-4.4592,-1.4459,0.2588,0.1803,1.6382,-3.3950
1.067557,-4.4592,-1.4459,0.2588,0.1680,1.6492,-3.3523
1.067921,-4.4379,-1.5072,0.3283,0.1680,1.6492,-3.3523
1.073131,-4.4379,-1.5072,0.3283,0.1680,1.6492,-3.3523
1.073534,-4.4379,-1.5072,0.3283,0.1632,1.6675,-3.3194
1.073967,-4.4518,-1.5232,0.4908,0.1632,1.6675,-3.3194
1.074421,-4.4428,-1.6961,0.6058,0.1632,1.6675,-3.3194
1.074866,-4.4428,-1.6961,0.6058,0.1632,1.6675,-3.3194
1.075162,-4.4428,-1.6961,0.6058,0.1645,1.6907,-3.2937
1.075615,-4.4428,-1.6961,0.6058,0.1645,1.6907,-3.2937
1.075897,-4.4428,-1.6961,0.6058,0.1742,1.7139,-3.2754
1.076394,-4.5440,-1.8145,0.7467,0.1742,1.7139,-3.2754
1.076895,-4.5440,-1.8145,0.7467,0.1742,1.7139,-3.2754
1.077198,-4.5440,-1.8145,0.7467,0.1900,1.7335,-3.2619
1.077657,-4.7154,-2.0262,0.8887,0.1900,1.7335,-3.2619
1.079644,-4.7154,-2.0262,0.8887,0.1900,1.7335,-3.2619
1.079967,-4.7154,-2.0262,0.8887,0.2072,1.7530,-3.2534
1.080394,-4.9932,-2.2606,1.0225,0.2072,1.7530,-3.2534
1.081160,-4.9932,-2.2606,1.0225,0.2072,1.7530,-3.2534
1.081445,-4.9932,-2.2606,1.0225,0.2353,1.7603,-3.2436
1.081827,-5.3114,-2.4374,1.1998,0.2353,1.7603,-3.2436
1.083401,-5.3114,-2.4374,1.1998,0.2353,1.7603,-3.2436
1.083682,-5.3114,-2.4374,1.1998,0.2646,1.7567,-3.2301
1.084162,-5.6729,-2.5860,1.3636,0.2646,1.7567,-3.2301
1.086247,-5.6729,-2.5860,1.3636,0.2646,1.7567,-3.2301
1.086965,-5.6729,-2.5860,1.3636,0.2975,1.7372,-3.2167
1.087807,-6.0140,-2.7603,1.4884,0.2975,1.7372,-3.2167
1.088617,-6.0140,-2.7603,1.4884,0.2975,1.7372,-3.2167
1.089039,-6.0140,-2.7603,1.4884,0.3330,1.7054,-3.1947
1.089700,-6.3266,-2.8364,1.5810,0.3330,1.7054,-3.1947
1.093419,-6.3266,-2.8364,1.5810,0.3330,1.7054,-3.1947
1.093725,-6.3266,-2.8364,1.5810,0.3708,1.6626,-3.1654
1.094123,-6.6277,-2.8585,1.7062,0.3708,1.6626,-3.1654
1.094533,-6.6277,-2.8585,1.7062,0.3708,1.6626,-3.1654
1.094773,-6.6277,-2.8585,1.7062,0.4088,1.6052,-3.1299
1.095125,-6.9212,-2.8607,1.7407,0.4088,1.6052,-3.1299
1.095509,-6.9212,-2.8607,1.7407,0.4088,1.6052,-3.1299
1.095754,-6.9212,-2.8607,1.7407,0.4441,1.5454,-3.0848
1.096161,-7.1371,-2.8442,1.7665,0.4441,1.5454,-3.0848
1.097618,-7.1371,-2.8442,1.7665,0.4441,1.5454,-3.0848
1.097905,-7.1371,-2.8442,1.7665,0.4771,1.4843,-3.0322
1.098285,-7.2591,-2.7322,1.8187,0.4771,1.4843,-3.0322
1.099058,-7.2591,-2.7322,1.8187,0.4771,1.4843,-3.0322
1.099347,-7.2591,-2.7322,1.8187,0.5077,1.4207,-2.9748
1.099749,-7.3101,-2.5825,1.8152,0.5077,1.4207,-2.9748
1.102194,-7.3101,-2.5825,1.8152,0.5077,1.4207,-2.9748
1.102672,-7.3101,-2.5825,1.8152,0.5334,1.3621,-2.9149
1.103203,-7.3083,-2.3913,1.7802,0.5334,1.3621,-2.9149
1.103725,-7.3083,-2.3913,1.7802,0.5334,1.3621,-2.9149
1.104003,-7.3083,-2.3913,1.7802,0.5541,1.3133,-2.8551
1.104481,-7.2773,-2.2104,1.7281,0.5541,1.3133,-2.8551
1.106216,-7.2773,-2.2104,1.7281,0.5541,1.3133,-2.8551
1.106520,-7.2773,-2.2104,1.7281,0.5712,1.2716,-2.7965
1.106943,-7.2030,-2.0651,1.6608,0.5712,1.2716,-2.7965
1.108586,-7.2030,-2.0651,1.6608,0.5712,1.2716,-2.7965
1.108983,-7.2030,-2.0651,1.6608,0.5846,1.2435,-2.7353
1.109482,-7.1714,-1.9408,1.5807,0.5846,1.2435,-2.7353
1.111032,-7.1714,-1.9408,1.5807,0.5846,1.2435,-2.7353
1.111418,-7.1714,-1.9408,1.5807,0.5932,1.2215,-2.6755
1.111979,-7.1134,-1.8860,1.5539,0.5932,1.2215,-2.6755
1.113195,-7.1134,-1.8860,1.5539,0.5932,1.2215,-2.6755
1.113519,-7.1134,-1.8860,1.5539,0.6006,1.2070,-2.6169
1.113962,-7.1050,-1.8473,1.5606,0.6006,1.2070,-2.6169
1.115450,-7.1050,-1.8473,1.5606,0.6006,1.2070,-2.6169
1.115829,-7.1050,-1.8473,1.5606,0.6104,1.1923,-2.5582
1.116484,-7.0960,-1.8489,1.5889,0.6104,1.1923,-2.5582
1.120531,-7.0960,-1.8489,1.5889,0.6104,1.1923,-2.5582
1.121022,-7.0960,-1.8489,1.5889,0.6238,1.1788,-2.5007
1.121687,-7.0965,-1.8407,1.6046,0.6238,1.1788,-2.5007
1.122233,-7.0965,-1.8407,1.6046,0.6238,1.1788,-2.5007
1.122594,-7.0965,-1.8407,1.6046,0.6396,1.1666,-2.4434
1.123081,-7.0557,-1.8687,1.6627,0.6396,1.1666,-2.4434
1.123562,-7.0557,-1.8687,1.6627,0.6396,1.1666,-2.4434
1.123870,-7.0557,-1.8687,1.6627,0.6617,1.1532,-2.3909
1.124374,-7.0043,-1.8918,1.6651,0.6617,1.1532,-2.3909
1.127200,-7.0043,-1.8918,1.6651,0.6617,1.1532,-2.3909
1.127638,-7.0043,-1.8918,1.6651,0.6849,1.1433,-2.3396
1.128290,-6.9865,-1.9191,1.6160,0.6849,1.1433,-2.3396
1.128892,-6.9865,-1.9191,1.6160,0.6849,1.1433,-2.3396
1.129279,-6.9865,-1.9191,1.6160,0.7129,1.1373,-2.2956
1.129878,-6.9663,-1.9085,1.5501,0.7129,1.1373,-2.2956
1.130481,-6.9663,-1.9085,1.5501,0.7129,1.1373,-2.2956
1.130891,-6.9663,-1.9085,1.5501,0.7447,1.1360,-2.2516
1.131459,-6.9066,-1.8899,1.4238,0.7447,1.1360,-2.2516
1.134186,-6.9066,-1.8899,1.4238,0.7447,1.1360,-2.2516
1.134641,-6.9066,-1.8899,1.4238,0.7765,1.1385,-2.2125
1.135232,-6.8944,-1.9373,1.3349,0.7765,1.1385,-2.2125
1.135824,-6.8944,-1.9373,1.3349,0.7765,1.1385,-2.2125
1.136267,-6.8944,-1.9373,1.3349,0.8107,1.1445,-2.1758
1.136877,-6.9508,-1.9378,1.1935,0.8107,1.1445,-2.1758
1.137474,-6.9508,-1.9378,1.1935,0.8107,1.1445,-2.1758
1.137861,-6.9508,-1.9378,1.1935,0.8449,1.1544,-2.1416
1.138450,-6.9907,-1.9341,1.0177,0.8449,1.1544,-2.1416
1.141059,-6.9907,-1.9341,1.0177,0.8449,1.1544,-2.1416
1.141882,-6.9907,-1.9341,1.0177,0.8792,1.1593,-2.1062
1.142711,-7.0113,-1.9332,0.9033,0.8792,1.1593,-2.1062
1.143518,-7.0113,-1.9332,0.9033,0.8792,1.1593,-2.1062
1.144003,-7.0113,-1.9332,0.9033,0.9133,1.1580,-2.0683
1.144792,-7.0852,-1.8594,0.7723,0.9133,1.1580,-2.0683
1.145443,-7.0852,-1.8594,0.7723,0.9133,1.1580,-2.0683
1.145858,-7.0852,-1.8594,0.7723,0.9438,1.1544,-2.0317
1.146423,-7.0759,-1.7915,0.6328,0.9438,1.1544,-2.0317
1.147011,-7.0759,-1.7915,0.6328,0.9438,1.1544,-2.0317
1.147292,-7.0759,-1.7915,0.6328,0.9745,1.1495,-1.9913
1.147698,-7.0761,-1.6937,0.5147,0.9745,1.1495,-1.9913
1.152598,-7.0761,-1.6937,0.5147,0.9745,1.1495,-1.9913
1.153170,-7.0761,-1.6937,0.5147,1.0025,1.1445,-1.9497
1.153711,-7.1256,-1.5240,0.3936,1.0025,1.1445,-1.9497
1.154228,-7.0586,-1.3970,0.2427,1.0025,1.1445,-1.9497
1.154742,-7.0586,-1.3970,0.2427,1.0025,1.1445,-1.9497
1.155058,-7.0586,-1.3970,0.2427,1.0270,1.1385,-1.9058
1.155536,-7.0586,-1.3970,0.2427,1.0270,1.1385,-1.9058
1.155899,-7.0586,-1.3970,0.2427,1.0501,1.1336,-1.8582
1.156430,-6.9988,-1.2142,0.1228,1.0501,1.1336,-1.8582
1.156905,-6.9988,-1.2142,0.1228,1.0501,1.1336,-1.8582
1.157229,-6.9988,-1.2142,0.1228,1.0697,1.1275,-1.8117
1.157700,-6.9745,-1.0384,-0.0284,1.0697,1.1275,-1.8117
1.160561,-6.9745,-1.0384,-0.0284,1.0697,1.1275,-1.8117
1.160990,-6.9745,-1.0384,-0.0284,1.0868,1.1202,-1.7641
1.161422,-6.9063,-0.9217,-0.1929,1.0868,1.1202,-1.7641
1.161793,-6.9063,-0.9217,-0.1929,1.0868,1.1202,-1.7641
1.162038,-6.9063,-0.9217,-0.1929,1.1015,1.1092,-1.7128
1.162423,-6.7535,-0.7619,-0.3660,1.1015,1.1092,-1.7128
1.163710,-6.7535,-0.7619,-0.3660,1.1015,1.1092,-1.7128
1.163979,-6.7535,-0.7619,-0.3660,1.1125,1.0945,-1.6614
1.164381,-6.6549,-0.5972,-0.5314,1.1125,1.0945,-1.6614
1.165603,-6.6549,-0.5972,-0.5314,1.1125,1.0945,-1.6614
1.166122,-6.6549,-0.5972,-0.5314,1.1186,1.0762,-1.6065
1.166807,-6.4935,-0.4716,-0.6981,1.1186,1.0762,-1.6065
1.167789,-6.4935,-0.4716,-0.6981,1.1186,1.0762,-1.6065
1.168144,-6.4935,-0.4716,-0.6981,1.1186,1.0542,-1.5528
1.168520,-6.3403,-0.3830,-0.9231,1.1186,1.0542,-1.5528
1.173077,-6.3403,-0.3830,-0.9231,1.1186,1.0542,-1.5528
1.173408,-6.3403,-0.3830,-0.9231,1.1100,1.0310,-1.5026
1.173861,-6.2134,-0.3301,-1.1343,1.1100,1.0310,-1.5026
1.174303,-6.2134,-0.3301,-1.1343,1.1100,1.0310,-1.5026
1.174573,-6.2134,-0.3301,-1.1343,1.0990,1.0053,-1.4501
1.175011,-6.0828,-0.3390,-1.3404,1.0990,1.0053,-1.4501
1.175407,-6.0828,-0.3390,-1.3404,1.0990,1.0053,-1.4501
1.175635,-6.0828,-0.3390,-1.3404,1.0783,0.9822,-1.4000
1.176002,-6.0096,-0.2927,-1.5966,1.0783,0.9822,-1.4000
1.178601,-6.0096,-0.2927,-1.5966,1.0783,0.9822,-1.4000
1.179566,-6.0096,-0.2927,-1.5966,1.0526,0.9675,-1.3500
1.180418,-5.9015,-0.2309,-1.8045,1.0526,0.9675,-1.3500
1.181156,-5.9015,-0.2309,-1.8045,1.0526,0.9675,-1.3500
1.181574,-5.9015,-0.2309,-1.8045,1.0258,0.9564,-1.3035
1.182159,-5.8058,-0.2418,-1.9648,1.0258,0.9564,-1.3035
1.182727,-5.8058,-0.2418,-1.9648,1.0258,0.9564,-1.3035
1.183105,-5.8058,-0.2418,-1.9648,0.9927,0.9492,-1.2583
1.183934,-5.7582,-0.2071,-2.0857,0.9927,0.9492,-1.2583
1.188326,-5.7582,-0.2071,-2.0857,0.9927,0.9492,-1.2583
1.189113,-5.7582,-0.2071,-2.0857,0.9597,0.9430,-1.2143
1.189885,-5.7199,-0.0914,-2.2060,0.9597,0.9430,-1.2143
1.190397,-5.6669,-0.0054,-2.2180,0.9597,0.9430,-1.2143
1.190783,-5.6669,-0.0054,-2.2180,0.9597,0.9430,-1.2143
1.191133,-5.6669,-0.0054,-2.2180,0.9255,0.9406,-1.1704
1.191703,-5.6669,-0.0054,-2.2180,0.9255,0.9406,-1.1704
1.192073,-5.6669,-0.0054,-2.2180,0.8938,0.9382,-1.1252
1.192599,-5.6679,0.1666,-2.3352,0.8938,0.9382,-1.1252
1.193120,-5.6679,0.1666,-2.3352,0.8938,0.9382,-1.1252
1.193466,-5.6679,0.1666,-2.3352,0.8620,0.9442,-1.0799
1.193982,-5.7350,0.4460,-2.4208,0.8620,0.9442,-1.0799
1.194498,-5.7350,0.4460,-2.4208,0.8620,0.9442,-1.0799
1.194823,-5.7350,0.4460,-2.4208,0.8302,0.9492,-1.0299
1.195282,-5.6829,0.6306,-2.3728,0.8302,0.9492,-1.0299
1.199691,-5.6829,0.6306,-2.3728,0.8302,0.9492,-1.0299
1.200174,-5.6829,0.6306,-2.3728,0.8022,0.9492,-0.9797
1.200698,-5.6931,0.7235,-2.4622,0.8022,0.9492,-0.9797
1.201627,-5.6931,0.7235,-2.4622,0.8022,0.9492,-0.9797
1.201974,-5.6931,0.7235,-2.4622,0.7717,0.9492,-0.9284
1.202455,-5.5322,0.7538,-2.3949,0.7717,0.9492,-0.9284
1.203054,-5.5322,0.7538,-2.3949,0.7717,0.9492,-0.9284
1.203401,-5.5322,0.7538,-2.3949,0.7459,0.9369,-0.8833
1.203916,-5.3557,0.6946,-2.3125,0.7459,0.9369,-0.8833
1.204522,-5.3557,0.6946,-2.3125,0.7459,0.9369,-0.8833
1.204849,-5.3557,0.6946,-2.3125,0.7191,0.9199,-0.8466
1.205287,-5.1366,0.6119,-2.1969,0.7191,0.9199,-0.8466
1.205827,-5.1366,0.6119,-2.1969,0.7191,0.9199,-0.8466
1.206176,-5.1366,0.6119,-2.1969,0.6946,0.8942,-0.8123
1.206631,-4.8489,0.4988,-2.0420,0.6946,0.8942,-0.8123
1.212958,-4.8489,0.4988,-2.0420,0.6946,0.8942,-0.8123
1.213525,-4.8489,0.4988,-2.0420,0.6654,0.8562,-0.7855
1.214164,-4.5781,0.4126,-1.8783,0.6654,0.8562,-0.7855
1.214610,-4.5781,0.4126,-1.8783,0.6654,0.8562,-0.7855
1.215061,-4.5781,0.4126,-1.8783,0.6434,0.8147,-0.7635
1.215679,-4.3412,0.3889,-1.8137,0.6434,0.8147,-0.7635
1.216123,-4.3412,0.3889,-1.8137,0.6434,0.8147,-0.7635
1.216368,-4.3412,0.3889,-1.8137,0.6201,0.7708,-0.7451
1.216757,-4.1200,0.3781,-1.7052,0.6201,0.7708,-0.7451
1.217192,-4.1200,0.3781,-1.7052,0.6201,0.7708,-0.7451
1.217463,-4.1200,0.3781,-1.7052,0.5969,0.7231,-0.7305
1.217825,-3.8367,0.3771,-1.5081,0.5969,0.7231,-0.7305
1.218193,-3.8367,0.3771,-1.5081,0.5969,0.7231,-0.7305
1.218439,-3.8367,0.3771,-1.5081,0.5737,0.6693,-0.7183
1.218790,-3.5896,0.3309,-1.2924,0.5737,0.6693,-0.7183
1.223461,-3.5896,0.3309,-1.2924,0.5737,0.6693,-0.7183
1.224002,-3.5896,0.3309,-1.2924,0.5554,0.6108,-0.7098
1.224887,-3.3959,0.3057,-1.1026,0.5554,0.6108,-0.7098
1.225492,-3.3959,0.3057,-1.1026,0.5554,0.6108,-0.7098
1.225902,-3.3959,0.3057,-1.1026,0.5383,0.5508,-0.7013
1.226495,-3.2713,0.3004,-1.0057,0.5383,0.5508,-0.7013
1.227099,-3.2713,0.3004,-1.0057,0.5383,0.5508,-0.7013
1.227473,-3.2713,0.3004,-1.0057,0.5236,0.4946,-0.6963
1.228019,-3.2120,0.3658,-0.8554,0.5236,0.4946,-0.6963
1.228750,-3.2120,0.3658,-0.8554,0.5236,0.4946,-0.6963
1.229174,-3.2120,0.3658,-0.8554,0.5114,0.4385,-0.6915
1.229824,-3.1429,0.4171,-0.7411,0.5114,0.4385,-0.6915
1.230643,-3.1429,0.4171,-0.7411,0.5114,0.4385,-0.6915
1.231125,-3.1429,0.4171,-0.7411,0.5028,0.3847,-0.6817
1.231783,-3.1667,0.5400,-0.6665,0.5028,0.3847,-0.6817
1.232523,-3.1667,0.5400,-0.6665,0.5028,0.3847,-0.6817
1.232898,-3.1667,0.5400,-0.6665,0.4956,0.3310,-0.6707
1.233350,-3.1796,0.5857,-0.6169,0.4956,0.3310,-0.6707
1.240582,-3.1796,0.5857,-0.6169,0.4956,0.3310,-0.6707
1.241419,-3.1796,0.5857,-0.6169,0.4894,0.2808,-0.6535
1.241965,-3.2424,0.7408,-0.5770,0.4894,0.2808,-0.6535
1.242429,-3.2424,0.7408,-0.5770,0.4894,0.2808,-0.6535
1.242698,-3.2424,0.7408,-0.5770,0.4857,0.2307,-0.6340
1.243135,-3.1993,0.7355,-0.4880,0.4857,0.2307,-0.6340
1.243535,-3.1993,0.7355,-0.4880,0.4857,0.2307,-0.6340
1.243782,-3.1993,0.7355,-0.4880,0.4808,0.1770,-0.6170
1.244226,-3.0783,0.6672,-0.3949,0.4808,0.1770,-0.6170
1.244645,-3.0783,0.6672,-0.3949,0.4808,0.1770,-0.6170
1.245071,-3.0783,0.6672,-0.3949,0.4796,0.1282,-0.5973
1.245671,-3.0476,0.6335,-0.2818,0.4796,0.1282,-0.5973
1.246323,-3.0476,0.6335,-0.2818,0.4796,0.1282,-0.5973
1.246741,-3.0476,0.6335,-0.2818,0.4796,0.0817,-0.5790
1.247295,-2.9579,0.6505,-0.2026,0.4796,0.0817,-0.5790
1.247993,-2.9579,0.6505,-0.2026,0.4796,0.0817,-0.5790
1.248561,-2.9579,0.6505,-0.2026,0.4808,0.0366,-0.5632
1.248979,-2.8584,0.6321,-0.0984,0.4808,0.0366,-0.5632
1.249386,-2.8584,0.6321,-0.0984,0.4808,0.0366,-0.5632
1.249632,-2.8584,0.6321,-0.0984,0.4881,-0.0062,-0.5435
1.250009,-2.7300,0.6014,0.0168,0.4881,-0.0062,-0.5435
1.254621,-2.7300,0.6014,0.0168,0.4881,-0.0062,-0.5435
1.255225,-2.7300,0.6014,0.0168,0.4956,-0.0477,-0.5265
1.255882,-2.6165,0.6230,0.1259,0.4956,-0.0477,-0.5265
1.256427,-2.6165,0.6230,0.1259,0.4956,-0.0477,-0.5265
1.256690,-2.6165,0.6230,0.1259,0.5077,-0.0894,-0.5142
1.257061,-2.5050,0.6484,0.2418,0.5077,-0.0894,-0.5142
1.257470,-2.5050,0.6484,0.2418,0.5077,-0.0894,-0.5142
1.257716,-2.5050,0.6484,0.2418,0.5199,-0.1284,-0.5020
1.258077,-2.3988,0.6372,0.3466,0.5199,-0.1284,-0.5020
1.258430,-2.3988,0.6372,0.3466,0.5199,-0.1284,-0.5020
1.258646,-2.3988,0.6372,0.3466,0.5383,-0.1675,-0.4887
1.258934,-2.3409,0.6118,0.4880,0.5383,-0.1675,-0.4887
1.260115,-2.3409,0.6118,0.4880,0.5383,-0.1675,-0.4887
1.260355,-2.3409,0.6118,0.4880,0.5566,-0.2054,-0.4764
1.260681,-2.2874,0.6202,0.6431,0.5566,-0.2054,-0.4764
1.262575,-2.2874,0.6202,0.6431,0.5566,-0.2054,-0.4764
1.262814,-2.2874,0.6202,0.6431,0.5774,-0.2420,-0.4642
1.263378,-2.3234,0.5225,0.7601,0.5774,-0.2420,-0.4642
1.264952,-2.3234,0.5225,0.7601,0.5774,-0.2420,-0.4642
1.265222,-2.3234,0.5225,0.7601,0.6006,-0.2738,-0.4470
1.265569,-2.3749,0.4107,0.8562,0.6006,-0.2738,-0.4470
1.268001,-2.3749,0.4107,0.8562,0.6006,-0.2738,-0.4470
1.268487,-2.3749,0.4107,0.8562,0.6287,-0.2982,-0.4287
1.268922,-2.0408,0.2318,0.8953,0.6287,-0.2982,-0.4287
1.270117,-2.0408,0.2318,0.8953,0.6287,-0.2982,-0.4287
1.270393,-2.0408,0.2318,0.8953,0.6567,-0.3129,-0.4239
1.270865,-1.5610,0.1029,0.7963,0.6567,-0.3129,-0.4239
1.271830,-1.5610,0.1029,0.7963,0.6567,-0.3129,-0.4239
1.272380,-1.5610,0.1029,0.7963,0.6837,-0.3215,-0.4275
1.273034,-1.2421,0.0051,0.8024,0.6837,-0.3215,-0.4275
1.274663,-1.2421,0.0051,0.8024,0.6837,-0.3215,-0.4275
1.274987,-1.2421,0.0051,0.8024,0.7044,-0.3300,-0.4459
1.275511,-1.1969,-0.0804,0.8770,0.7044,-0.3300,-0.4459
1.276734,-1.1969,-0.0804,0.8770,0.7044,-0.3300,-0.4459
1.277210,-1.1969,-0.0804,0.8770,0.7289,-0.3447,-0.4605
1.277699,-1.3082,-0.1288,1.0277,0.7289,-0.3447,-0.4605
1.279015,-1.3082,-0.1288,1.0277,0.7289,-0.3447,-0.4605
1.279365,-1.3082,-0.1288,1.0277,0.7557,-0.3642,-0.4715
1.279867,-1.4660,-0.1661,1.1620,0.7557,-0.3642,-0.4715
1.281562,-1.4660,-0.1661,1.1620,0.7557,-0.3642,-0.4715
1.281989,-1.4660,-0.1661,1.1620,0.7839,-0.3825,-0.4752
1.282632,-1.5659,-0.1755,1.2484,0.7839,-0.3825,-0.4752
1.286290,-1.5659,-0.1755,1.2484,0.7839,-0.3825,-0.4752
1.287072,-1.5659,-0.1755,1.2484,0.8156,-0.3935,-0.4740
1.287938,-1.5719,-0.0766,1.3468,0.8156,-0.3935,-0.4740
1.289358,-1.5719,-0.0766,1.3468,0.8156,-0.3935,-0.4740
1.289946,-1.5719,-0.0766,1.3468,0.8497,-0.4058,-0.4715
1.290711,-1.6839,0.0497,1.4893,0.8497,-0.4058,-0.4715
1.291614,-1.6839,0.0497,1.4893,0.8497,-0.4058,-0.4715
1.292278,-1.6839,0.0497,1.4893,0.8889,-0.4095,-0.4642
1.293031,-1.7815,0.1663,1.6200,0.8889,-0.4095,-0.4642
1.293837,-1.7815,0.1663,1.6200,0.8889,-0.4095,-0.4642
1.294440,-1.7815,0.1663,1.6200,0.9328,-0.4106,-0.4482
1.295227,-1.8947,0.3010,1.7058,0.9328,-0.4106,-0.4482
1.296010,-1.8947,0.3010,1.7058,0.9328,-0.4106,-0.4482
1.296653,-1.8947,0.3010,1.7058,0.9793,-0.4095,-0.4275
1.297320,-1.8715,0.3886,1.6828,0.9793,-0.4095,-0.4275
1.298117,-1.8715,0.3886,1.6828,0.9793,-0.4095,-0.4275
1.298676,-1.8715,0.3886,1.6828,1.0258,-0.4008,-0.4055
1.299413,-1.7875,0.4493,1.6359,1.0258,-0.4008,-0.4055
1.300293,-1.7875,0.4493,1.6359,1.0258,-0.4008,-0.4055
1.300918,-1.7875,0.4493,1.6359,1.0710,-0.3960,-0.3835
1.301663,-1.7530,0.5326,1.5632,1.0710,-0.3960,-0.3835
1.302482,-1.7530,0.5326,1.5632,1.0710,-0.3960,-0.3835
1.303082,-1.7530,0.5326,1.5632,1.1136,-0.3923,-0.3616
1.303875,-1.7498,0.5982,1.4759,1.1136,-0.3923,-0.3616
1.304740,-1.7498,0.5982,1.4759,1.1136,-0.3923,-0.3616
1.305359,-1.7498,0.5982,1.4759,1.1540,-0.3911,-0.3409
1.306115,-1.7929,0.6158,1.3644,1.1540,-0.3911,-0.3409
1.306871,-1.7929,0.6158,1.3644,1.1540,-0.3911,-0.3409
1.307474,-1.7929,0.6158,1.3644,1.1906,-0.3850,-0.3164
1.308233,-1.7805,0.6176,1.2246,1.1906,-0.3850,-0.3164
1.309011,-1.7805,0.6176,1.2246,1.1906,-0.3850,-0.3164
1.309557,-1.7805,0.6176,1.2246,1.2211,-0.3777,-0.2919
1.310187,-1.7340,0.6443,1.0887,1.2211,-0.3777,-0.2919
1.310966,-1.7340,0.6443,1.0887,1.2211,-0.3777,-0.2919
1.311541,-1.7340,0.6443,1.0887,1.2518,-0.3690,-0.2699
1.312286,-1.6132,0.6083,0.9607,1.2518,-0.3690,-0.2699
1.312984,-1.6132,0.6083,0.9607,1.2518,-0.3690,-0.2699
1.313314,-1.6132,0.6083,0.9607,1.2799,-0.3605,-0.2516
1.313724,-1.4697,0.5885,0.8653,1.2799,-0.3605,-0.2516
1.327349,-1.4697,0.5885,0.8653,1.2799,-0.3605,-0.2516
1.328003,-1.4697,0.5885,0.8653,1.3067,-0.3532,-0.2382
1.328829,-1.2849,0.5799,0.7495,1.3067,-0.3532,-0.2382
1.329606,-1.2849,0.5799,0.7495,1.3067,-0.3532,-0.2382
1.329868,-1.2849,0.5799,0.7495,1.3311,-0.3471,-0.2271
1.330274,-1.1239,0.5060,0.6993,1.3311,-0.3471,-0.2271
1.330657,-1.1239,0.5060,0.6993,1.3311,-0.3471,-0.2271
1.330911,-1.1239,0.5060,0.6993,1.3494,-0.3373,-0.2211
1.331265,-1.0552,0.5051,0.2958,1.3494,-0.3373,-0.2211
1.331622,-1.0552,0.5051,0.2958,1.3494,-0.3373,-0.2211
1.331860,-1.0552,0.5051,0.2958,1.3604,-0.3202,-0.2149
1.332249,-0.9183,0.4775,-0.0072,1.3604,-0.3202,-0.2149
1.332610,-0.9183,0.4775,-0.0072,1.3604,-0.3202,-0.2149
1.332850,-0.9183,0.4775,-0.0072,1.3678,-0.3055,-0.2126
1.333211,-0.8456,0.4290,-0.0458,1.3678,-0.3055,-0.2126
1.333507,-0.8456,0.4290,-0.0458,1.3678,-0.3055,-0.2126
1.333748,-0.8456,0.4290,-0.0458,1.3751,-0.2945,-0.2113
1.334054,-0.7526,0.4015,-0.0651,1.3751,-0.2945,-0.2113
1.334378,-0.7526,0.4015,-0.0651,1.3751,-0.2945,-0.2113
1.334601,-0.7526,0.4015,-0.0651,1.3812,-0.2885,-0.2137
1.334926,-0.6165,0.3520,-0.1157,1.3812,-0.2885,-0.2137
1.335253,-0.6165,0.3520,-0.1157,1.3812,-0.2885,-0.2137
1.335473,-0.6165,0.3520,-0.1157,1.3874,-0.2824,-0.2174
1.335805,-0.4429,0.2844,-0.1971,1.3874,-0.2824,-0.2174
1.339514,-0.4429,0.2844,-0.1971,1.3874,-0.2824,-0.2174
1.339926,-0.4429,0.2844,-0.1971,1.3922,-0.2787,-0.2236
1.340812,-0.3979,0.2607,-0.2267,1.3922,-0.2787,-0.2236
1.341195,-0.3709,0.2607,-0.1907,1.3922,-0.2787,-0.2236
1.341528,-0.3709,0.2607,-0.1907,1.3922,-0.2787,-0.2236
1.341752,-0.3709,0.2607,-0.1907,1.3971,-0.2725,-0.2321
1.342126,-0.3709,0.2607,-0.1907,1.3971,-0.2725,-0.2321
1.342365,-0.3709,0.2607,-0.1907,1.4007,-0.2702,-0.2394
1.342734,-0.2502,0.1889,-0.2410,1.4007,-0.2702,-0.2394
1.343124,-0.2502,0.1889,-0.2410,1.4007,-0.2702,-0.2394
1.343343,-0.2502,0.1889,-0.2410,1.4007,-0.2604,-0.2491
1.343643,-0.2266,0.1960,-0.5852,1.4007,-0.2604,-0.2491
1.343983,-0.2266,0.1960,-0.5852,1.4007,-0.2604,-0.2491
1.344335,-0.2266,0.1960,-0.5852,1.3959,-0.2384,-0.2553
1.344751,-0.2810,0.2050,-0.5924,1.3959,-0.2384,-0.2553
1.346643,-0.2810,0.2050,-0.5924,1.3959,-0.2384,-0.2553
1.346946,-0.2810,0.2050,-0.5924,1.3947,-0.2237,-0.2589
1.347327,-0.1775,0.0810,-0.5633,1.3947,-0.2237,-0.2589
1.347681,-0.1775,0.0810,-0.5633,1.3947,-0.2237,-0.2589
1.347966,-0.1775,0.0810,-0.5633,1.3947,-0.2079,-0.2663
1.348343,-0.1850,0.0125,-0.5140,1.3947,-0.2079,-0.2663
1.351668,-0.1850,0.0125,-0.5140,1.3947,-0.2079,-0.2663
1.352778,-0.1850,0.0125,-0.5140,1.3971,-0.1882,-0.2736
1.353482,-0.1887,-0.0710,-0.5191,1.3971,-0.1882,-0.2736
1.354926,-0.1887,-0.0710,-0.5191,1.3971,-0.1882,-0.2736
1.355350,-0.1887,-0.0710,-0.5191,1.4020,-0.1565,-0.2822
1.355961,-0.1481,-0.1559,-0.6307,1.4020,-0.1565,-0.2822
1.356687,-0.1481,-0.1559,-0.6307,1.4020,-0.1565,-0.2822
1.357283,-0.1481,-0.1559,-0.6307,1.4094,-0.1224,-0.2894
1.358002,-0.1128,-0.2109,-0.6220,1.4094,-0.1224,-0.2894
1.358557,-0.1128,-0.2109,-0.6220,1.4094,-0.1224,-0.2894
1.359133,-0.1128,-0.2109,-0.6220,1.4142,-0.0808,-0.2969
1.359726,-0.0835,-0.3073,-0.4512,1.4142,-0.0808,-0.2969
1.360440,-0.0835,-0.3073,-0.4512,1.4142,-0.0808,-0.2969
1.360885,-0.0835,-0.3073,-0.4512,1.4252,-0.0466,-0.3041
1.361380,-0.0891,-0.3650,-0.2407,1.4252,-0.0466,-0.3041
1.361942,-0.0891,-0.3650,-0.2407,1.4252,-0.0466,-0.3041
1.362290,-0.0891,-0.3650,-0.2407,1.4411,-0.0111,-0.3091
1.362784,-0.1048,-0.4204,-0.0793,1.4411,-0.0111,-0.3091
1.366904,-0.1048,-0.4204,-0.0793,1.4411,-0.0111,-0.3091
1.367284,-0.1048,-0.4204,-0.0793,1.4594,0.0291,-0.3176
1.367837,-0.0128,-0.4620,-0.1848,1.4594,0.0291,-0.3176
1.370361,-0.0128,-0.4620,-0.1848,1.4765,0.0842,-0.3262
1.371285,0.0168,-0.4726,-0.1663,1.4765,0.0842,-0.3262
1.371978,0.0168,-0.4726,-0.1663,1.4765,0.0842,-0.3262
1.372573,-0.0622,-0.5296,0.2267,1.4765,0.0842,-0.3262
1.373125,-0.0622,-0.5296,0.2267,1.4765,0.0842,-0.3262
1.373520,-0.0622,-0.5296,0.2267,1.4961,0.1294,-0.3359
1.373995,-0.0622,-0.5296,0.2267,1.4961,0.1294,-0.3359
1.374317,-0.0622,-0.5296,0.2267,1.5205,0.1734,-0.3457
1.374813,-0.0035,-0.5114,0.0585,1.5205,0.1734,-0.3457
1.375297,-0.0035,-0.5114,0.0585,1.5205,0.1734,-0.3457
1.375628,-0.0035,-0.5114,0.0585,1.5450,0.2247,-0.3579
1.376121,-0.0755,-0.5938,0.2510,1.5450,0.2247,-0.3579
1.376485,-0.0755,-0.5938,0.2510,1.5450,0.2247,-0.3579
1.376732,-0.0755,-0.5938,0.2510,1.5730,0.2687,-0.3664
1.377089,-0.2495,-0.6033,0.4333,1.5730,0.2687,-0.3664
1.379633,-0.2495,-0.6033,0.4333,1.5730,0.2687,-0.3664
1.379899,-0.2495,-0.6033,0.4333,1.6024,0.3102,-0.3737
1.380301,-0.3031,-0.5922,0.4080,1.6024,0.3102,-0.3737
1.380981,-0.3031,-0.5922,0.4080,1.6024,0.3102,-0.3737
1.381238,-0.3031,-0.5922,0.4080,1.6305,0.3590,-0.3812
1.381597,-0.3847,-0.5754,0.3602,1.6305,0.3590,-0.3812
1.385199,-0.3847,-0.5754,0.3602,1.6305,0.3590,-0.3812
1.386008,-0.3847,-0.5754,0.3602,1.6525,0.4177,-0.3897
1.387173,-0.3435,-0.4774,-0.0242,1.6525,0.4177,-0.3897
1.388099,-0.3435,-0.4774,-0.0242,1.6525,0.4177,-0.3897
1.388678,-0.3435,-0.4774,-0.0242,1.6659,0.4995,-0.3945
1.389373,-0.1954,-0.3082,-0.8776,1.6659,0.4995,-0.3945
1.390356,-0.1954,-0.3082,-0.8776,1.6659,0.4995,-0.3945
1.390874,-0.1954,-0.3082,-0.8776,1.6585,0.6010,-0.3970
1.391570,-0.4047,-0.1578,-1.2962,1.6585,0.6010,-0.3970
1.392338,-0.4047,-0.1578,-1.2962,1.6585,0.6010,-0.3970
1.392860,-0.4047,-0.1578,-1.2962,1.6475,0.6951,-0.3897
1.393396,-0.8097,0.0567,-1.4866,1.6475,0.6951,-0.3897
1.393966,-0.8097,0.0567,-1.4866,1.6475,0.6951,-0.3897
1.394349,-0.8097,0.0567,-1.4866,1.6390,0.7696,-0.3714
1.394894,-1.2488,0.2590,-1.3381,1.6390,0.7696,-0.3714
1.395530,-1.2488,0.2590,-1.3381,1.6390,0.7696,-0.3714
1.396113,-1.2488,0.2590,-1.3381,1.6342,0.8282,-0.3372
1.396716,-1.4157,0.5812,-1.6124,1.6342,0.8282,-0.3372
1.401091,-1.4157,0.5812,-1.6124,1.6342,0.8282,-0.3372
1.401531,-1.4157,0.5812,-1.6124,1.6158,0.9039,-0.3041
1.402165,-1.0329,0.9208,-2.6766,1.6158,0.9039,-0.3041
1.404898,-1.0329,0.9208,-2.6766,1.5755,1.0152,-0.2761
1.405856,-0.5535,1.2947,-4.0069,1.5755,1.0152,-0.2761
1.406656,-0.5535,1.2947,-4.0069,1.5755,1.0152,-0.2761
1.407125,-0.9345,1.4558,-3.9970,1.5755,1.0152,-0.2761
1.407828,-0.9345,1.4558,-3.9970,1.5755,1.0152,-0.2761
1.408352,-0.9345,1.4558,-3.9970,1.5157,1.1275,-0.2516
1.408917,-0.9345,1.4558,-3.9970,1.5157,1.1275,-0.2516
1.409302,-0.9345,1.4558,-3.9970,1.4692,1.1775,-0.2174
1.409838,-1.4514,1.3714,-2.8741,1.4692,1.1775,-0.2174
1.410483,-1.4514,1.3714,-2.8741,1.4692,1.1775,-0.2174
1.410875,-1.4514,1.3714,-2.8741,1.4374,1.1935,-0.1734
1.411438,-1.2785,1.5547,-3.0974,1.4374,1.1935,-0.1734
1.412088,-1.2785,1.5547,-3.0974,1.4374,1.1935,-0.1734
1.412345,-1.2785,1.5547,-3.0974,1.4044,1.2180,-0.1391
1.412705,-1.3377,1.6338,-3.2662,1.4044,1.2180,-0.1391
1.413088,-1.3377,1.6338,-3.2662,1.4044,1.2180,-0.1391
1.413339,-1.3377,1.6338,-3.2662,1.3702,1.2387,-0.1099
1.413683,-1.2406,1.5952,-2.6187,1.3702,1.2387,-0.1099
1.419041,-1.2406,1.5952,-2.6187,1.3702,1.2387,-0.1099
1.419354,-1.2406,1.5952,-2.6187,1.3397,1.2460,-0.0866
1.419798,-1.0487,1.6529,-2.3706,1.3397,1.2460,-0.0866
1.423903,-1.0487,1.6529,-2.3706,1.3397,1.2460,-0.0866
1.424676,-1.0487,1.6529,-2.3706,1.3153,1.2570,-0.0708
1.425143,-0.7811,1.6321,-2.5105,1.3153,1.2570,-0.0708
1.425531,-0.5681,1.5310,-2.5945,1.3153,1.2570,-0.0708
1.425948,-0.5681,1.5310,-2.5945,1.3153,1.2570,-0.0708
1.426192,-0.5681,1.5310,-2.5945,1.2871,1.2790,-0.0683
1.426545,-0.5681,1.5310,-2.5945,1.2871,1.2790,-0.0683
1.426786,-0.5681,1.5310,-2.5945,1.2554,1.3046,-0.0683
1.427111,-0.4213,1.3711,-2.4647,1.2554,1.3046,-0.0683
1.427490,-0.4213,1.3711,-2.4647,1.2554,1.3046,-0.0683
1.427745,-0.4213,1.3711,-2.4647,1.2310,1.3168,-0.0744
1.428179,-0.2926,1.0717,-2.1670,1.2310,1.3168,-0.0744
1.428567,-0.2926,1.0717,-2.1670,1.2310,1.3168,-0.0744
1.428811,-0.2926,1.0717,-2.1670,1.2066,1.3230,-0.0866
1.429130,-0.2013,0.9389,-2.1348,1.2066,1.3230,-0.0866
1.429534,-0.2013,0.9389,-2.1348,1.2066,1.3230,-0.0866
1.429766,-0.2013,0.9389,-2.1348,1.1870,1.3120,-0.0964
1.430126,-0.4539,0.8318,-1.6434,1.1870,1.3120,-0.0964
1.433146,-0.4539,0.8318,-1.6434,1.1870,1.3120,-0.0964
1.433454,-0.4539,0.8318,-1.6434,1.1809,1.2643,-0.0964
1.433850,-0.7504,0.5792,-0.5299,1.1809,1.2643,-0.0964
1.435984,-0.7504,0.5792,-0.5299,1.1883,1.1825,-0.0903
1.437209,-0.6303,0.6080,-0.2660,1.1883,1.1825,-0.0903
1.437849,-0.6303,0.6080,-0.2660,1.1883,1.1825,-0.0903
1.438580,-0.1773,0.7250,-0.7089,1.1883,1.1825,-0.0903
1.439013,-0.1773,0.7250,-0.7089,1.1883,1.1825,-0.0903
1.439307,-0.1773,0.7250,-0.7089,1.1918,1.1117,-0.0903
1.439814,-0.1773,0.7250,-0.7089,1.1918,1.1117,-0.0903
1.440169,-0.1773,0.7250,-0.7089,1.1968,1.0383,-0.0953
1.440646,-0.2877,0.3090,0.6814,1.1968,1.0383,-0.0953
1.441051,-0.2877,0.3090,0.6814,1.1968,1.0383,-0.0953
1.441326,-0.2877,0.3090,0.6814,1.2456,0.8869,-0.1026
1.441734,-0.3727,0.0476,3.0015,1.2456,0.8869,-0.1026
1.444864,-0.3727,0.0476,3.0015,1.2456,0.8869,-0.1026
1.445175,-0.3727,0.0476,3.0015,1.3043,0.7439,-0.1172
1.445646,-0.0378,0.2040,1.6928,1.3043,0.7439,-0.1172
1.446039,-0.0378,0.2040,1.6928,1.3043,0.7439,-0.1172
1.446319,-0.0378,0.2040,1.6928,1.3434,0.6559,-0.1368
1.446859,0.1533,0.0569,1.9549,1.3434,0.6559,-0.1368
1.447261,0.1533,0.0569,1.9549,1.3434,0.6559,-0.1368
1.447537,0.1533,0.0569,1.9549,1.3874,0.5606,-0.1636
1.447943,0.2471,-0.2005,2.9582,1.3874,0.5606,-0.1636
1.451742,0.2471,-0.2005,2.9582,1.3874,0.5606,-0.1636
1.452493,0.2471,-0.2005,2.9582,1.4436,0.4397,-0.1917
1.453246,0.4093,-0.4277,3.7506,1.4436,0.4397,-0.1917
1.453933,0.4093,-0.4277,3.7506,1.4436,0.4397,-0.1917
1.454408,0.4093,-0.4277,3.7506,1.4997,0.3322,-0.2259
1.455041,0.6006,-0.5996,3.1693,1.4997,0.3322,-0.2259
1.455455,0.6006,-0.5996,3.1693,1.4997,0.3322,-0.2259
1.455739,0.6006,-0.5996,3.1693,1.5437,0.2625,-0.2601
1.456262,0.7060,-0.8340,2.7583,1.5437,0.2625,-0.2601
1.458058,0.7060,-0.8340,2.7583,1.5437,0.2625,-0.2601
1.458356,0.7060,-0.8340,2.7583,1.5730,0.1892,-0.2980
1.458739,1.0895,-1.0384,2.8247,1.5730,0.1892,-0.2980
1.459141,1.0895,-1.0384,2.8247,1.5730,0.1892,-0.2980
1.459414,1.0895,-1.0384,2.8247,1.5962,0.1086,-0.3407
1.459835,1.4631,-1.0220,2.6773,1.5962,0.1086,-0.3407
1.461370,1.4631,-1.0220,2.6773,1.5962,0.1086,-0.3407
1.461668,1.4631,-1.0220,2.6773,1.5975,0.0512,-0.3860
1.462252,1.3538,-0.7387,0.6898,1.5975,0.0512,-0.3860
1.464010,1.3538,-0.7387,0.6898,1.5975,0.0512,-0.3860
1.464422,1.3538,-0.7387,0.6898,1.5522,0.0646,-0.4153
1.464885,0.7373,-0.5052,-1.2871,1.5522,0.0646,-0.4153
1.468627,0.7373,-0.5052,-1.2871,1.5522,0.0646,-0.4153
1.469267,0.7373,-0.5052,-1.2871,1.4717,0.1049,-0.4190
1.469880,0.3696,-0.1114,-2.4201,1.4717,0.1049,-0.4190
1.470669,0.3696,-0.1114,-2.4201,1.4717,0.1049,-0.4190
1.471018,0.3696,-0.1114,-2.4201,1.3812,0.1440,-0.4080
1.471361,0.1971,0.2651,-2.9037,1.3812,0.1440,-0.4080
1.471745,0.1971,0.2651,-2.9037,1.3812,0.1440,-0.4080
1.472126,0.1971,0.2651,-2.9037,1.2946,0.1660,-0.3909
1.472682,0.2039,0.7323,-2.9401,1.2946,0.1660,-0.3909
1.475258,0.2039,0.7323,-2.9401,1.2946,0.1660,-0.3909
1.475669,0.2039,0.7323,-2.9401,1.2261,0.1734,-0.3750
1.476496,0.2358,1.2024,-2.7656,1.2261,0.1734,-0.3750
1.477111,0.2358,1.2024,-2.7656,1.2261,0.1734,-0.3750
1.477496,0.2358,1.2024,-2.7656,1.1736,0.1722,-0.3591
1.478019,0.2698,1.5885,-2.5099,1.1736,0.1722,-0.3591
1.478549,0.2698,1.5885,-2.5099,1.1736,0.1722,-0.3591
1.478934,0.2698,1.5885,-2.5099,1.1381,0.1697,-0.3469
1.479429,0.4515,1.9856,-2.6442,1.1381,0.1697,-0.3469
1.482068,0.4515,1.9856,-2.6442,1.1381,0.1697,-0.3469
1.482562,0.4515,1.9856,-2.6442,1.1100,0.1746,-0.3432
1.483125,0.5933,2.1439,-2.5444,1.1100,0.1746,-0.3432
1.483764,0.5933,2.1439,-2.5444,1.1100,0.1746,-0.3432
1.484225,0.5933,2.1439,-2.5444,1.0843,0.1942,-0.3457
1.484821,0.6872,2.2575,-2.7209,1.0843,0.1942,-0.3457
1.487982,0.6872,2.2575,-2.7209,1.0843,0.1942,-0.3457
1.488766,0.6872,2.2575,-2.7209,1.0600,0.2234,-0.3517
1.489607,0.6824,2.2425,-2.7965,1.0600,0.2234,-0.3517
1.490303,0.6824,2.2425,-2.7965,1.0600,0.2234,-0.3517
1.490798,0.6824,2.2425,-2.7965,1.0343,0.2577,-0.3554
1.491410,0.5999,2.2128,-2.6293,1.0343,0.2577,-0.3554
1.492164,0.5999,2.2128,-2.6293,1.0343,0.2577,-0.3554
1.492639,0.5999,2.2128,-2.6293,1.0098,0.2930,-0.3604
1.493263,0.7347,2.2044,-2.7931,1.0098,0.2930,-0.3604
1.493872,0.7347,2.2044,-2.7931,1.0098,0.2930,-0.3604
1.494286,0.7347,2.2044,-2.7931,0.9818,0.3322,-0.3677
1.494803,0.9426,2.2025,-2.9502,0.9818,0.3322,-0.3677
1.495282,0.9426,2.2025,-2.9502,0.9818,0.3322,-0.3677
1.495538,0.9426,2.2025,-2.9502,0.9488,0.3737,-0.3835
1.495887,1.1976,2.1194,-2.9400,0.9488,0.3737,-0.3835
1.499563,1.1976,2.1194,-2.9400,0.9488,0.3737,-0.3835
1.499884,1.1976,2.1194,-2.9400,0.9195,0.4030,-0.4019
1.500417,1.1348,2.0406,-2.4812,0.9195,0.4030,-0.4019
1.502648,1.1348,2.0406,-2.4812,0.9195,0.4030,-0.4019
1.503889,1.1348,2.0406,-2.4812,0.8999,0.4030,-0.4165
1.504615,1.1441,2.0510,-2.0247,0.8999,0.4030,-0.4165
1.505237,1.2701,2.0491,-1.5407,0.8999,0.4030,-0.4165
1.505966,1.2701,2.0491,-1.5407,0.8999,0.4030,-0.4165
1.506401,1.2701,2.0491,-1.5407,0.8902,0.3872,-0.4312
1.507133,1.2701,2.0491,-1.5407,0.8902,0.3872,-0.4312
1.508246,1.2701,2.0491,-1.5407,0.8902,0.3565,-0.4495
1.509115,1.4808,2.1081,-1.1728,0.8902,0.3565,-0.4495
1.509767,1.4808,2.1081,-1.1728,0.8902,0.3565,-0.4495
1.510277,1.4808,2.1081,-1.1728,0.8913,0.3310,-0.4679
1.510926,1.5958,2.3594,-1.2613,0.8913,0.3310,-0.4679
1.511638,1.5958,2.3594,-1.2613,0.8913,0.3310,-0.4679
1.512166,1.5958,2.3594,-1.2613,0.8840,0.3187,-0.4862
1.512723,1.7197,2.5321,-1.4608,0.8840,0.3187,-0.4862
1.513258,1.7197,2.5321,-1.4608,0.8840,0.3187,-0.4862
1.513578,1.7197,2.5321,-1.4608,0.8693,0.3212,-0.5070
1.514003,1.8002,2.6064,-1.6060,0.8693,0.3212,-0.5070
1.514505,1.8002,2.6064,-1.6060,0.8693,0.3212,-0.5070
1.514929,1.8002,2.6064,-1.6060,0.8437,0.3310,-0.5277
1.515371,1.8315,2.7031,-1.8238,0.8437,0.3310,-0.5277
1.520283,1.8315,2.7031,-1.8238,0.8437,0.3310,-0.5277
1.520666,1.8315,2.7031,-1.8238,0.8107,0.3468,-0.5448
1.521095,1.7688,2.7985,-1.9738,0.8107,0.3468,-0.5448
1.521600,1.7688,2.7985,-1.9738,0.8107,0.3468,-0.5448
1.521901,1.7688,2.7985,-1.9738,0.7667,0.3627,-0.5570
1.522408,1.7212,2.9204,-1.9879,0.7667,0.3627,-0.5570
1.522886,1.7212,2.9204,-1.9879,0.7667,0.3627,-0.5570
1.523189,1.7212,2.9204,-1.9879,0.7264,0.3675,-0.5668
1.523660,1.7655,3.0240,-1.8394,0.7264,0.3675,-0.5668
1.524178,1.7655,3.0240,-1.8394,0.7264,0.3675,-0.5668
1.524489,1.7655,3.0240,-1.8394,0.6849,0.3675,-0.5742
1.524850,1.7716,3.2070,-1.6904,0.6849,0.3675,-0.5742
1.526921,1.7716,3.2070,-1.6904,0.6849,0.3675,-0.5742
1.527333,1.7716,3.2070,-1.6904,0.6494,0.3602,-0.5803
1.527759,1.8656,3.1635,-1.4161,0.6494,0.3602,-0.5803
1.528219,1.8656,3.1635,-1.4161,0.6494,0.3602,-0.5803
1.528477,1.8656,3.1635,-1.4161,0.6176,0.3480,-0.5888
1.528789,1.8733,3.2084,-1.1158,0.6176,0.3480,-0.5888
1.534445,1.8733,3.2084,-1.1158,0.6176,0.3480,-0.5888
1.534899,1.8733,3.2084,-1.1158,0.5884,0.3310,-0.5973
1.535407,1.8186,3.3737,-0.9952,0.5884,0.3310,-0.5973
1.535960,1.8186,3.3737,-0.9952,0.5884,0.3310,-0.5973
1.536494,1.8186,3.3737,-0.9952,0.5578,0.3212,-0.6035
1.536968,1.7590,3.4712,-0.9624,0.5578,0.3212,-0.6035
1.537469,1.7590,3.4712,-0.9624,0.5578,0.3212,-0.6035
1.537804,1.7590,3.4712,-0.9624,0.5285,0.3248,-0.6071
1.538231,1.6513,3.5532,-0.9023,0.5285,0.3248,-0.6071
1.538691,1.6513,3.5532,-0.9023,0.5285,0.3248,-0.6071
1.539107,1.6513,3.5532,-0.9023,0.4991,0.3358,-0.6083
1.539588,1.4717,3.5761,-0.6917,0.4991,0.3358,-0.6083
1.540026,1.4717,3.5761,-0.6917,0.4991,0.3358,-0.6083
1.540430,1.4717,3.5761,-0.6917,0.4771,0.3505,-0.6035
1.540821,1.1877,3.6670,-0.5267,0.4771,0.3505,-0.6035
1.544619,1.1877,3.6670,-0.5267,0.4771,0.3505,-0.6035
1.545500,1.1877,3.6670,-0.5267,0.4601,0.3688,-0.5950
1.546049,0.9090,3.7194,-0.2934,0.4601,0.3688,-0.5950
1.546641,0.9090,3.7194,-0.2934,0.4601,0.3688,-0.5950
1.546996,0.9090,3.7194,-0.2934,0.4491,0.3835,-0.5790
1.547475,0.5324,3.8218,-0.0323,0.4491,0.3835,-0.5790
1.547983,0.5324,3.8218,-0.0323,0.4491,0.3835,-0.5790
1.548410,0.5324,3.8218,-0.0323,0.4454,0.3908,-0.5570
1.548877,0.2289,3.9247,0.2053,0.4454,0.3908,-0.5570
1.549375,0.2289,3.9247,0.2053,0.4454,0.3908,-0.5570
1.549714,0.2289,3.9247,0.2053,0.4466,0.3957,-0.5253
1.550191,-0.0393,3.8483,0.4749,0.4466,0.3957,-0.5253
1.555957,-0.0393,3.8483,0.4749,0.4466,0.3957,-0.5253
1.556373,-0.0393,3.8483,0.4749,0.4516,0.3993,-0.4947
1.556853,-0.3464,3.7633,0.6710,0.4516,0.3993,-0.4947
1.557687,-0.3464,3.7633,0.6710,0.4516,0.3993,-0.4947
1.557999,-0.3464,3.7633,0.6710,0.4576,0.4018,-0.4630
1.558401,-0.6024,3.6581,0.8646,0.4576,0.4018,-0.4630
1.558837,-0.6024,3.6581,0.8646,0.4576,0.4018,-0.4630
1.559141,-0.6024,3.6581,0.8646,0.4686,0.4055,-0.4275
1.559588,-0.6317,3.4883,1.0150,0.4686,0.4055,-0.4275
1.559957,-0.6317,3.4883,1.0150,0.4686,0.4055,-0.4275
1.560269,-0.6317,3.4883,1.0150,0.4748,0.4115,-0.3994
1.560652,-0.6249,3.1764,1.1799,0.4748,0.4115,-0.3994
1.561085,-0.6249,3.1764,1.1799,0.4748,0.4115,-0.3994
1.561370,-0.6249,3.1764,1.1799,0.4808,0.4153,-0.3762
1.561705,-0.3487,2.8384,1.1166,0.4808,0.4153,-0.3762
1.563658,-0.3487,2.8384,1.1166,0.4808,0.4153,-0.3762
1.564600,-0.3487,2.8384,1.1166,0.4858,0.4250,-0.3627
1.565462,-0.1011,2.5476,1.0928,0.4858,0.4250,-0.3627
1.566707,-0.1011,2.5476,1.0928,0.4858,0.4250,-0.3627
1.567269,-0.1011,2.5476,1.0928,0.4821,0.4335,-0.3579
1.567988,0.1071,2.2909,0.9433,0.4821,0.4335,-0.3579
1.568766,0.1071,2.2909,0.9433,0.4821,0.4335,-0.3579
1.569082,0.1071,2.2909,0.9433,0.4661,0.4433,-0.3604
1.569444,0.2825,2.0077,0.7467,0.4661,0.4433,-0.3604
1.572357,0.2825,2.0077,0.7467,0.4661,0.4433,-0.3604
1.572665,0.2825,2.0077,0.7467,0.4478,0.4543,-0.3652
1.573100,0.4462,1.7102,0.6163,0.4478,0.4543,-0.3652
1.573476,0.4462,1.7102,0.6163,0.4478,0.4543,-0.3652
1.573721,0.4462,1.7102,0.6163,0.4221,0.4617,-0.3787
1.574090,0.6761,1.4187,0.4643,0.4221,0.4617,-0.3787
1.575861,0.6761,1.4187,0.4643,0.4221,0.4617,-0.3787
1.576399,0.6761,1.4187,0.4643,0.3928,0.4678,-0.3982
1.576840,0.9273,1.1731,0.2597,0.3928,0.4678,-0.3982
1.578361,0.9273,1.1731,0.2597,0.3928,0.4678,-0.3982
1.578646,0.9273,1.1731,0.2597,0.3623,0.4727,-0.4263
1.579096,1.1959,1.0172,-0.0055,0.3623,0.4727,-0.4263
1.579776,1.1959,1.0172,-0.0055,0.3623,0.4727,-0.4263
1.580331,1.1959,1.0172,-0.0055,0.3293,0.4788,-0.4593
1.580752,1.4503,0.9795,-0.3766,0.3293,0.4788,-0.4593
1.583721,1.4503,0.9795,-0.3766,0.3293,0.4788,-0.4593
1.584235,1.4503,0.9795,-0.3766,0.2878,0.4910,-0.4960
1.584762,1.5065,0.9502,-0.6105,0.2878,0.4910,-0.4960
1.585217,1.5065,0.9502,-0.6105,0.2878,0.4910,-0.4960
1.585484,1.5065,0.9502,-0.6105,0.2463,0.5068,-0.5338
1.585893,1.5682,0.9178,-0.8823,0.2463,0.5068,-0.5338
1.586809,1.5682,0.9178,-0.8823,0.2463,0.5068,-0.5338
1.587095,1.5682,0.9178,-0.8823,0.2085,0.5276,-0.5705
1.587471,1.5208,0.8937,-1.0081,0.2085,0.5276,-0.5705
1.590561,1.5208,0.8937,-1.0081,0.2085,0.5276,-0.5705
1.591042,1.5208,0.8937,-1.0081,0.1705,0.5583,-0.6058
1.591739,1.5955,0.9563,-1.3568,0.1705,0.5583,-0.6058
1.592577,1.5955,0.9563,-1.3568,0.1705,0.5583,-0.6058
1.593100,1.5955,0.9563,-1.3568,0.1339,0.6021,-0.6413
1.593976,1.5302,1.0900,-1.6260,0.1339,0.6021,-0.6413
1.594416,1.5302,1.0900,-1.6260,0.1339,0.6021,-0.6413
1.594676,1.5302,1.0900,-1.6260,0.1033,0.6535,-0.6718
1.595036,1.2861,1.1562,-1.5912,0.1033,0.6535,-0.6718
1.596335,1.2861,1.1562,-1.5912,0.1033,0.6535,-0.6718
1.596609,1.2861,1.1562,-1.5912,0.0764,0.7061,-0.6988
1.596940,1.0935,1.1661,-1.6099,0.0764,0.7061,-0.6988
1.600693,1.0935,1.1661,-1.6099,0.0764,0.7061,-0.6988
1.601297,1.0935,1.1661,-1.6099,0.0544,0.7732,-0.7208
1.601856,1.2142,1.2316,-1.9783,0.0544,0.7732,-0.7208
1.603443,1.2142,1.2316,-1.9783,0.0544,0.7732,-0.7208
1.604640,1.2142,1.2316,-1.9783,0.0312,0.8564,-0.7463
1.605639,1.2185,1.3408,-2.1471,0.0312,0.8564,-0.7463
1.606378,1.2185,1.3408,-2.1471,0.0312,0.8564,-0.7463
1.606844,1.2185,1.3408,-2.1471,0.0080,0.9430,-0.7708
1.607396,1.2013,1.4675,-2.3291,0.0080,0.9430,-0.7708
1.608193,1.2013,1.4675,-2.3291,0.0080,0.9430,-0.7708
1.608686,1.2013,1.4675,-2.3291,-0.0164,1.0359,-0.7941
1.609211,1.3269,1.4949,-2.4947,-0.0164,1.0359,-0.7941
1.609700,1.3269,1.4949,-2.4947,-0.0164,1.0359,-0.7941
1.610053,1.3269,1.4949,-2.4947,-0.0408,1.1373,-0.8136
1.610486,1.6029,1.5839,-2.8423,-0.0408,1.1373,-0.8136
1.610992,1.6029,1.5839,-2.8423,-0.0408,1.1373,-0.8136
1.611311,1.6029,1.5839,-2.8423,-0.0726,1.2521,-0.8404
1.611772,1.7768,1.5717,-3.1397,-0.0726,1.2521,-0.8404
1.615255,1.7768,1.5717,-3.1397,-0.0726,1.2521,-0.8404
1.615631,1.7768,1.5717,-3.1397,-0.1166,1.3951,-0.8711
1.616300,1.7127,1.4925,-3.4421,-0.1166,1.3951,-0.8711
1.616905,1.7127,1.4925,-3.4421,-0.1166,1.3951,-0.8711
1.617270,1.7127,1.4925,-3.4421,-0.1704,1.5587,-0.9016
1.617751,1.6788,1.4633,-3.3553,-0.1704,1.5587,-0.9016
1.620109,1.6788,1.4633,-3.3553,-0.1704,1.5587,-0.9016
1.620762,1.6788,1.4633,-3.3553,-0.2204,1.7005,-0.9309
1.621429,1.7957,1.4301,-3.1657,-0.2204,1.7005,-0.9309
1.622233,1.7957,1.4301,-3.1657,-0.2204,1.7005,-0.9309
1.622683,1.7957,1.4301,-3.1657,-0.2681,1.8227,-0.9602
1.623347,2.0434,1.3879,-3.1288,-0.2681,1.8227,-0.9602
1.624182,2.0434,1.3879,-3.1288,-0.2681,1.8227,-0.9602
1.624663,2.0434,1.3879,-3.1288,-0.3120,1.9216,-0.9944
1.625252,2.2602,1.3416,-2.9487,-0.3120,1.9216,-0.9944
1.625766,2.2602,1.3416,-2.9487,-0.3120,1.9216,-0.9944
1.626119,2.2602,1.3416,-2.9487,-0.3512,2.0010,-1.0286
1.626603,2.3451,1.2443,-2.8289,-0.3512,2.0010,-1.0286
1.627104,2.3451,1.2443,-2.8289,-0.3512,2.0010,-1.0286
1.627489,2.3451,1.2443,-2.8289,-0.3952,2.0816,-1.0726
1.627970,2.8710,1.3271,-3.1362,-0.3952,2.0816,-1.0726
1.631353,2.8710,1.3271,-3.1362,-0.3952,2.0816,-1.0726
1.631652,2.8710,1.3271,-3.1362,-0.4428,2.1549,-1.1227
1.632004,3.3455,1.3421,-3.0178,-0.4428,2.1549,-1.1227
1.632455,3.3455,1.3421,-3.0178,-0.4428,2.1549,-1.1227
1.632821,3.3455,1.3421,-3.0178,-0.4892,2.2111,-1.1789
1.633160,3.4415,1.2334,-2.7569,-0.4892,2.2111,-1.1789
1.635046,3.4415,1.2334,-2.7569,-0.4892,2.2111,-1.1789
1.635456,3.4415,1.2334,-2.7569,-0.5307,2.2466,-1.2363
1.635898,3.4955,1.0121,-2.5879,-0.5307,2.2466,-1.2363
1.637689,3.4955,1.0121,-2.5879,-0.5307,2.2466,-1.2363
1.637963,3.4955,1.0121,-2.5879,-0.5686,2.2747,-1.2913
1.638439,3.5898,0.9229,-2.5227,-0.5686,2.2747,-1.2913
1.639030,3.5898,0.9229,-2.5227,-0.5686,2.2747,-1.2913
1.639282,3.5898,0.9229,-2.5227,-0.6065,2.2869,-1.3500
1.639644,3.8098,0.7993,-2.4858,-0.6065,2.2869,-1.3500
1.641651,3.8098,0.7993,-2.4858,-0.6065,2.2869,-1.3500
1.641978,3.8098,0.7993,-2.4858,-0.6493,2.3052,-1.4135
1.642700,4.3500,0.9807,-2.8100,-0.6493,2.3052,-1.4135
1.647383,4.3500,0.9807,-2.8100,-0.6493,2.3052,-1.4135
1.647666,4.3500,0.9807,-2.8100,-0.6920,2.3247,-1.4856
1.648127,4.4908,0.9265,-2.4652,-0.6920,2.3247,-1.4856
1.648528,4.4908,0.9265,-2.4652,-0.6920,2.3247,-1.4856
1.648790,4.4908,0.9265,-2.4652,-0.7298,2.3272,-1.5588
1.649147,4.2569,0.7998,-2.1000,-0.7298,2.3272,-1.5588
1.649510,4.2569,0.7998,-2.1000,-0.7298,2.3272,-1.5588
1.649753,4.2569,0.7998,-2.1000,-0.7556,2.3064,-1.6236
1.650099,3.2470,0.5458,-1.0728,-0.7556,2.3064,-1.6236
1.652010,3.2470,0.5458,-1.0728,-0.7556,2.3064,-1.6236
1.652472,3.2470,0.5458,-1.0728,-0.7653,2.2589,-1.6724
1.652950,2.8892,0.3357,-0.6442,-0.7653,2.2589,-1.6724
1.653383,2.8892,0.3357,-0.6442,-0.7653,2.2589,-1.6724
1.653635,2.8892,0.3357,-0.6442,-0.7739,2.2051,-1.7164
1.653987,3.0396,0.2964,-0.6016,-0.7739,2.2051,-1.7164
1.656196,3.0396,0.2964,-0.6016,-0.7739,2.2051,-1.7164
1.656480,3.0396,0.2964,-0.6016,-0.7849,2.1623,-1.7714
1.656806,3.4596,0.4318,-0.5194,-0.7849,2.1623,-1.7714
1.657782,3.4596,0.4318,-0.5194,-0.7849,2.1623,-1.7714
1.658111,3.4596,0.4318,-0.5194,-0.7983,2.1231,-1.8349
1.658780,3.0508,0.5709,-0.1172,-0.7983,2.1231,-1.8349
1.660379,3.0508,0.5709,-0.1172,-0.7983,2.1231,-1.8349
1.660819,3.0508,0.5709,-0.1172,-0.8106,2.0780,-1.8875
1.661208,2.5788,0.5838,0.3467,-0.8106,2.0780,-1.8875
1.662577,2.5788,0.5838,0.3467,-0.8106,2.0780,-1.8875
1.662843,2.5788,0.5838,0.3467,-0.8264,2.0376,-1.9327
1.663429,2.1299,0.5096,0.4717,-0.8264,2.0376,-1.9327
1.666467,2.1299,0.5096,0.4717,-0.8264,2.0376,-1.9327
1.666795,2.1299,0.5096,0.4717,-0.8386,2.0035,-1.9718
1.667199,1.6558,0.4655,0.8661,-0.8386,2.0035,-1.9718
1.668004,1.6558,0.4655,0.8661,-0.8386,2.0035,-1.9718
1.668338,1.6558,0.4655,0.8661,-0.8508,1.9595,-2.0010
1.668694,0.4783,0.3629,1.8351,-0.8508,1.9595,-2.0010
1.669788,0.4783,0.3629,1.8351,-0.8508,1.9595,-2.0010
1.670213,0.4783,0.3629,1.8351,-0.8496,1.8910,-2.0023
1.670877,-0.8030,0.3247,2.4066,-0.8496,1.8910,-2.0023
1.672603,-0.8030,0.3247,2.4066,-0.8496,1.8910,-2.0023
1.672966,-0.8030,0.3247,2.4066,-0.8411,1.8239,-1.9889
1.673509,-1.6320,0.4254,2.8928,-0.8411,1.8239,-1.9889
1.674856,-1.6320,0.4254,2.8928,-0.8411,1.8239,-1.9889
1.675201,-1.6320,0.4254,2.8928,-0.8301,1.7567,-1.9632
1.675636,-2.2225,0.4178,3.0338,-0.8301,1.7567,-1.9632
1.677072,-2.2225,0.4178,3.0338,-0.8301,1.7567,-1.9632
1.677526,-2.2225,0.4178,3.0338,-0.8239,1.7005,-1.9339
1.678107,-2.1090,0.6231,3.1004,-0.8239,1.7005,-1.9339
1.680245,-2.1090,0.6231,3.1004,-0.8239,1.7005,-1.9339
1.680735,-2.1090,0.6231,3.1004,-0.8166,1.6504,-1.9167
1.681317,-2.7138,0.6573,3.4357,-0.8166,1.6504,-1.9167
1.681848,-2.7138,0.6573,3.4357,-0.8166,1.6504,-1.9167
1.682191,-2.7138,0.6573,3.4357,-0.8154,1.6015,-1.8912
1.682706,-3.3468,0.7132,3.2912,-0.8154,1.6015,-1.8912
1.685191,-3.3468,0.7132,3.2912,-0.8154,1.6015,-1.8912
1.685914,-3.3468,0.7132,3.2912,-0.8178,1.5551,-1.8582
1.686609,-3.5138,0.6127,3.4611,-0.8178,1.5551,-1.8582
1.687293,-3.5138,0.6127,3.4611,-0.8178,1.5551,-1.8582
1.687736,-3.5138,0.6127,3.4611,-0.8178,1.4952,-1.8252
1.688431,-4.0812,0.6249,3.4495,-0.8178,1.4952,-1.8252
1.689035,-4.0812,0.6249,3.4495,-0.8178,1.4952,-1.8252
1.689350,-4.0812,0.6249,3.4495,-0.8276,1.4341,-1.7897
1.689815,-4.3125,0.6343,3.2252,-0.8276,1.4341,-1.7897
1.693156,-4.3125,0.6343,3.2252,-0.8276,1.4341,-1.7897
1.693503,-4.3125,0.6343,3.2252,-0.8374,1.3706,-1.7519
1.693999,-4.3270,0.5493,3.3413,-0.8374,1.3706,-1.7519
1.694521,-4.3270,0.5493,3.3413,-0.8374,1.3706,-1.7519
1.694857,-4.3270,0.5493,3.3413,-0.8496,1.2838,-1.7152
1.695285,-5.8037,0.7750,2.9932,-0.8496,1.2838,-1.7152
1.697010,-5.8037,0.7750,2.9932,-0.8496,1.2838,-1.7152
1.697357,-5.8037,0.7750,2.9932,-0.8679,1.1983,-1.6516
1.697894,-5.7512,0.8206,3.0120,-0.8679,1.1983,-1.6516
1.698400,-5.7512,0.8206,3.0120,-0.8679,1.1983,-1.6516
1.698731,-5.7512,0.8206,3.0120,-0.8789,1.1165,-1.5979
1.699198,-5.0566,0.6324,3.1685,-0.8789,1.1165,-1.5979
1.701639,-5.0566,0.6324,3.1685,-0.8789,1.1165,-1.5979
1.702165,-5.0566,0.6324,3.1685,-0.8899,1.0249,-1.5649
1.702717,-4.2901,0.4295,2.6786,-0.8899,1.0249,-1.5649
1.703223,-4.2901,0.4295,2.6786,-0.8899,1.0249,-1.5649
1.703571,-4.2901,0.4295,2.6786,-0.9168,0.9234,-1.5491
1.704088,-3.4667,0.2459,1.7061,-0.9168,0.9234,-1.5491
1.706958,-3.4667,0.2459,1.7061,-0.9168,0.9234,-1.5491
1.707371,-3.4667,0.2459,1.7061,-0.9669,0.8049,-1.5466
1.707857,-3.0616,0.0515,0.6678,-0.9669,0.8049,-1.5466
1.708339,-3.0616,0.0515,0.6678,-0.9669,0.8049,-1.5466
1.708588,-3.0616,0.0515,0.6678,-1.0389,0.6693,-1.5503
1.708929,-2.9681,0.2202,-0.3472,-1.0389,0.6693,-1.5503
1.710157,-2.9681,0.2202,-0.3472,-1.0389,0.6693,-1.5503
1.710425,-2.9681,0.2202,-0.3472,-1.1307,0.5265,-1.5551
1.710894,-2.7717,0.2474,-1.0135,-1.1307,0.5265,-1.5551
1.712495,-2.7717,0.2474,-1.0135,-1.1307,0.5265,-1.5551
1.712767,-2.7717,0.2474,-1.0135,-1.2370,0.3762,-1.5576
1.713403,-2.8534,0.4059,-1.6489,-1.2370,0.3762,-1.5576
1.718419,-2.8534,0.4059,-1.6489,-1.2370,0.3762,-1.5576
1.718997,-2.8534,0.4059,-1.6489,-1.3553,0.2124,-1.5588
1.719636,-3.0002,0.3558,-2.1994,-1.3553,0.2124,-1.5588
1.720486,-3.0002,0.3558,-2.1994,-1.3553,0.2124,-1.5588
1.720950,-3.0002,0.3558,-2.1994,-1.4751,0.0756,-1.5588
1.721537,-3.1943,0.3662,-2.2693,-1.4751,0.0756,-1.5588
1.721958,-3.1943,0.3662,-2.2693,-1.4751,0.0756,-1.5588
1.722302,-3.1943,0.3662,-2.2693,-1.5863,-0.0454,-1.5516
1.722778,-3.2471,0.4341,-2.4144,-1.5863,-0.0454,-1.5516
1.723310,-3.2471,0.4341,-2.4144,-1.5863,-0.0454,-1.5516
1.723636,-3.2471,0.4341,-2.4144,-1.6950,-0.1577,-1.5405
1.724167,-3.2226,0.3955,-2.5548,-1.6950,-0.1577,-1.5405
1.724656,-3.2226,0.3955,-2.5548,-1.6950,-0.1577,-1.5405
1.724966,-3.2226,0.3955,-2.5548,-1.8002,-0.2580,-1.5271
1.725435,-2.8510,0.5168,-2.6772,-1.8002,-0.2580,-1.5271
1.727901,-2.8510,0.5168,-2.6772,-1.8002,-0.2580,-1.5271
1.728303,-2.8510,0.5168,-2.6772,-1.8917,-0.3568,-1.5198
1.728827,-2.2750,0.9372,-2.3317,-1.8917,-0.3568,-1.5198
1.729351,-2.2750,0.9372,-2.3317,-1.8917,-0.3568,-1.5198
1.729693,-2.2750,0.9372,-2.3317,-1.9748,-0.4583,-1.5186
1.730182,-2.0341,1.0536,-2.2762,-1.9748,-0.4583,-1.5186
1.734716,-2.0341,1.0536,-2.2762,-1.9748,-0.4583,-1.5186
1.735325,-2.0341,1.0536,-2.2762,-2.0420,-0.5523,-1.5136
1.736001,-2.0106,1.1158,-2.0683,-2.0420,-0.5523,-1.5136
1.736761,-2.0106,1.1158,-2.0683,-2.0420,-0.5523,-1.5136
1.737131,-2.0106,1.1158,-2.0683,-2.1031,-0.6318,-1.5076
1.737697,-1.8268,1.0976,-2.1335,-2.1031,-0.6318,-1.5076
1.738311,-1.8268,1.0976,-2.1335,-2.1031,-0.6318,-1.5076
1.738669,-1.8268,1.0976,-2.1335,-2.1593,-0.6977,-1.5014
1.739157,-1.7763,1.1290,-2.2457,-2.1593,-0.6977,-1.5014
1.739661,-1.7763,1.1290,-2.2457,-2.1593,-0.6977,-1.5014
1.739975,-1.7763,1.1290,-2.2457,-2.2131,-0.7527,-1.4843
1.740543,-1.7682,1.1237,-2.2676,-2.2131,-0.7527,-1.4843
1.741093,-1.7682,1.1237,-2.2676,-2.2131,-0.7527,-1.4843
1.741423,-1.7682,1.1237,-2.2676,-2.2619,-0.8016,-1.4611
1.741896,-1.9718,1.0968,-2.4594,-2.2619,-0.8016,-1.4611
1.744845,-1.9718,1.0968,-2.4594,-2.2619,-0.8016,-1.4611
1.745420,-1.9718,1.0968,-2.4594,-2.3108,-0.8309,-1.4268
1.746090,-1.9827,1.1895,-2.5590,-2.3108,-0.8309,-1.4268
1.746529,-1.9827,1.1895,-2.5590,-2.3108,-0.8309,-1.4268
1.746773,-1.9827,1.1895,-2.5590,-2.3536,-0.8480,-1.3865
1.747134,-1.7940,1.4165,-2.3871,-2.3536,-0.8480,-1.3865
1.750811,-1.7940,1.4165,-2.3871,-2.3536,-0.8480,-1.3865
1.751216,-1.7940,1.4165,-2.3871,-2.3829,-0.8651,-1.3390
1.751661,-1.5718,1.5729,-2.0862,-2.3829,-0.8651,-1.3390
1.752112,-1.5718,1.5729,-2.0862,-2.3829,-0.8651,-1.3390
1.752463,-1.5718,1.5729,-2.0862,-2.4036,-0.8774,-1.2913
1.752819,-1.5353,1.6433,-1.9326,-2.4036,-0.8774,-1.2913
1.753190,-1.5353,1.6433,-1.9326,-2.4036,-0.8774,-1.2913
1.753401,-1.5353,1.6433,-1.9326,-2.4122,-0.8749,-1.2375
1.753779,-1.4025,1.7887,-1.8386,-2.4122,-0.8749,-1.2375
1.755077,-1.4025,1.7887,-1.8386,-2.4122,-0.8749,-1.2375
1.755427,-1.4025,1.7887,-1.8386,-2.4122,-0.8577,-1.1813
1.755907,-1.1825,1.7475,-1.4946,-2.4122,-0.8577,-1.1813
1.757537,-1.1825,1.7475,-1.4946,-2.4122,-0.8577,-1.1813
1.757880,-1.1825,1.7475,-1.4946,-2.3999,-0.8309,-1.1202
1.758412,-1.0808,1.6487,-1.5232,-2.3999,-0.8309,-1.1202
1.759752,-1.0808,1.6487,-1.5232,-2.3999,-0.8309,-1.1202
1.760229,-1.0808,1.6487,-1.5232,-2.3816,-0.7796,-1.0530
1.760750,-1.0060,1.7721,-1.4616,-2.3816,-0.7796,-1.0530
1.765680,-1.0060,1.7721,-1.4616,-2.3816,-0.7796,-1.0530
1.766066,-1.0060,1.7721,-1.4616,-2.3511,-0.7209,-0.9822
1.766632,-1.0042,1.6537,-1.1872,-2.3511,-0.7209,-0.9822
1.767193,-1.0042,1.6537,-1.1872,-2.3511,-0.7209,-0.9822
1.767510,-1.0042,1.6537,-1.1872,-2.3108,-0.6452,-0.9028
1.767930,-1.0315,1.5190,-1.0240,-2.3108,-0.6452,-0.9028
1.768515,-1.0315,1.5190,-1.0240,-2.3108,-0.6452,-0.9028
1.768859,-1.0315,1.5190,-1.0240,-2.2619,-0.5573,-0.8196
