
time,ax,ay,az,wx,wy,wz
0.107610,0.0000,0.0000,0.0000,0.0000,0.0000,0.0000
0.109425,0.0000,0.0000,0.0000,-0.0118,0.0835,-0.0004
0.110629,-0.0861,-0.0145,0.0710,-0.0118,0.0835,-0.0004
0.111760,-0.0861,-0.0145,0.0710,-0.0118,0.0835,-0.0004
0.112462,-0.0861,-0.0145,0.0710,-0.0106,0.0762,-0.0004
0.113332,-0.0838,0.0118,0.1051,-0.0106,0.0762,-0.0004
0.114255,-0.0838,0.0118,0.1051,-0.0106,0.0762,-0.0004
0.114650,-0.0838,0.0118,0.1051,-0.0106,0.0664,-0.0016
0.115129,-0.0460,-0.0185,0.0878,-0.0106,0.0664,-0.0016
0.115666,-0.0460,-0.0185,0.0878,-0.0106,0.0664,-0.0016
0.116138,-0.0460,-0.0185,0.0878,-0.0118,0.0590,-0.0029
0.116631,-0.0513,-0.0111,0.0468,-0.0118,0.0590,-0.0029
0.117099,-0.0513,-0.0111,0.0468,-0.0118,0.0590,-0.0029
0.117485,-0.0513,-0.0111,0.0468,-0.0131,0.0517,-0.0054
0.117921,-0.0119,0.0200,0.0018,-0.0131,0.0517,-0.0054
0.118422,-0.0119,0.0200,0.0018,-0.0131,0.0517,-0.0054
0.118777,-0.0119,0.0200,0.0018,-0.0155,0.0456,-0.0078
0.119262,-0.0315,0.0034,-0.0173,-0.0155,0.0456,-0.0078
0.119762,-0.0315,0.0034,-0.0173,-0.0155,0.0456,-0.0078
0.120185,-0.0315,0.0034,-0.0173,-0.0166,0.0370,-0.0089
0.120693,-0.0146,0.0204,-0.0533,-0.0166,0.0370,-0.0089
0.121144,-0.0146,0.0204,-0.0533,-0.0166,0.0370,-0.0089
0.121497,-0.0146,0.0204,-0.0533,-0.0216,0.0322,-0.0114
0.121969,-0.0086,0.0255,-0.0942,-0.0216,0.0322,-0.0114
0.122395,-0.0086,0.0255,-0.0942,-0.0216,0.0322,-0.0114
0.122729,-0.0086,0.0255,-0.0942,-0.0253,0.0285,-0.0126
0.123167,-0.0029,0.0159,-0.0943,-0.0253,0.0285,-0.0126
0.123563,-0.0029,0.0159,-0.0943,-0.0253,0.0285,-0.0126
0.123859,-0.0029,0.0159,-0.0943,-0.0289,0.0212,-0.0151
0.124260,0.0234,0.0351,-0.0804,-0.0289,0.0212,-0.0151
0.124695,0.0234,0.0351,-0.0804,-0.0289,0.0212,-0.0151
0.125023,0.0234,0.0351,-0.0804,-0.0314,0.0162,-0.0176
0.125550,0.0199,0.0125,-0.1135,-0.0314,0.0162,-0.0176
0.126017,0.0199,0.0125,-0.1135,-0.0314,0.0162,-0.0176
0.126327,0.0199,0.0125,-0.1135,-0.0351,0.0114,-0.0236
0.126741,0.0389,-0.0038,-0.1047,-0.0351,0.0114,-0.0236
0.127185,0.0389,-0.0038,-0.1047,-0.0351,0.0114,-0.0236
0.127514,0.0389,-0.0038,-0.1047,-0.0374,0.0077,-0.0261
0.127987,-0.0087,0.0327,-0.1048,-0.0374,0.0077,-0.0261
0.128422,-0.0087,0.0327,-0.1048,-0.0374,0.0077,-0.0261
0.128726,-0.0087,0.0327,-0.1048,-0.0411,0.0041,-0.0274
0.129132,-0.0014,0.0262,-0.1290,-0.0411,0.0041,-0.0274
0.129641,-0.0014,0.0262,-0.1290,-0.0411,0.0041,-0.0274
0.129954,-0.0014,0.0262,-0.1290,-0.0448,0.0016,-0.0274
0.130389,-0.0508,0.0238,-0.1401,-0.0448,0.0016,-0.0274
0.130867,-0.0508,0.0238,-0.1401,-0.0448,0.0016,-0.0274
0.131210,-0.0508,0.0238,-0.1401,-0.0461,0.0016,-0.0286
0.131617,-0.0792,0.0434,-0.1553,-0.0461,0.0016,-0.0286
0.132063,-0.0792,0.0434,-0.1553,-0.0461,0.0016,-0.0286
0.132384,-0.0792,0.0434,-0.1553,-0.0473,0.0016,-0.0274
0.133398,-0.0645,0.0798,-0.2053,-0.0473,0.0016,-0.0274
0.133922,-0.0645,0.0798,-0.2053,-0.0473,0.0016,-0.0274
0.134251,-0.0645,0.0798,-0.2053,-0.0509,0.0029,-0.0261
0.134725,-0.0251,0.0613,-0.2035,-0.0509,0.0029,-0.0261
0.135233,-0.0251,0.0613,-0.2035,-0.0509,0.0029,-0.0261
0.135538,-0.0251,0.0613,-0.2035,-0.0546,0.0052,-0.0261
0.135928,-0.0088,0.0619,-0.2176,-0.0546,0.0052,-0.0261
0.136367,-0.0088,0.0619,-0.2176,-0.0546,0.0052,-0.0261
0.136665,-0.0088,0.0619,-0.2176,-0.0571,0.0077,-0.0274
0.137030,-0.0204,0.0248,-0.2639,-0.0571,0.0077,-0.0274
0.137554,-0.0204,0.0248,-0.2639,-0.0571,0.0077,-0.0274
0.137872,-0.0204,0.0248,-0.2639,-0.0606,0.0126,-0.0274
0.138325,-0.0386,0.0187,-0.2991,-0.0606,0.0126,-0.0274
0.138817,-0.0386,0.0187,-0.2991,-0.0606,0.0126,-0.0274
0.139142,-0.0386,0.0187,-0.2991,-0.0656,0.0199,-0.0249
0.139550,-0.0209,0.0596,-0.2974,-0.0656,0.0199,-0.0249
0.140014,-0.0209,0.0596,-0.2974,-0.0656,0.0199,-0.0249
0.140319,-0.0209,0.0596,-0.2974,-0.0668,0.0285,-0.0224
0.140719,0.0109,0.0554,-0.3146,-0.0668,0.0285,-0.0224
0.141139,0.0109,0.0554,-0.3146,-0.0668,0.0285,-0.0224
0.141525,0.0109,0.0554,-0.3146,-0.0692,0.0359,-0.0212
0.141978,0.0625,0.0256,-0.3219,-0.0692,0.0359,-0.0212
0.142425,0.0625,0.0256,-0.3219,-0.0692,0.0359,-0.0212
0.142730,0.0625,0.0256,-0.3219,-0.0716,0.0469,-0.0199
0.143176,0.0744,0.0127,-0.3242,-0.0716,0.0469,-0.0199
0.143605,0.0744,0.0127,-0.3242,-0.0716,0.0469,-0.0199
0.143913,0.0744,0.0127,-0.3242,-0.0741,0.0615,-0.0224
0.144291,0.1074,0.0160,-0.3206,-0.0741,0.0615,-0.0224
0.144745,0.1074,0.0160,-0.3206,-0.0741,0.0615,-0.0224
0.145044,0.1074,0.0160,-0.3206,-0.0766,0.0762,-0.0224
0.145480,0.0968,0.0481,-0.2849,-0.0766,0.0762,-0.0224
0.145977,0.0968,0.0481,-0.2849,-0.0766,0.0762,-0.0224
0.146319,0.0968,0.0481,-0.2849,-0.0802,0.0908,-0.0212
0.146715,0.0767,0.0335,-0.2732,-0.0802,0.0908,-0.0212
0.147192,0.0767,0.0335,-0.2732,-0.0802,0.0908,-0.0212
0.147528,0.0767,0.0335,-0.2732,-0.0839,0.1055,-0.0164
0.147968,0.0121,0.0707,-0.2564,-0.0839,0.1055,-0.0164
0.148389,0.0121,0.0707,-0.2564,-0.0839,0.1055,-0.0164
0.148681,0.0121,0.0707,-0.2564,-0.0864,0.1262,-0.0078
0.149161,-0.9075,0.3951,-0.4600,-0.0864,0.1262,-0.0078
0.149697,-0.9075,0.3951,-0.4600,-0.0864,0.1262,-0.0078
0.150050,-0.9075,0.3951,-0.4600,-0.0888,0.1555,0.0191
0.150469,-0.8697,0.4821,-0.1590,-0.0888,0.1555,0.0191
0.150898,-0.8697,0.4821,-0.1590,-0.0888,0.1555,0.0191
0.151204,-0.8697,0.4821,-0.1590,-0.0876,0.1665,0.0424
0.151662,-0.5462,0.4092,-0.0505,-0.0876,0.1665,0.0424
0.152105,-0.5462,0.4092,-0.0505,-0.0876,0.1665,0.0424
0.152413,-0.5462,0.4092,-0.0505,-0.0839,0.1752,0.0569
0.152811,-0.4119,0.3744,-0.1798,-0.0839,0.1752,0.0569
0.153239,-0.4119,0.3744,-0.1798,-0.0839,0.1752,0.0569
0.154211,-0.4119,0.3744,-0.1798,-0.0826,0.1849,0.0667
0.154724,-0.2909,0.3136,-0.1963,-0.0826,0.1849,0.0667
0.155294,-0.2909,0.3136,-0.1963,-0.0826,0.1849,0.0667
0.155621,-0.2909,0.3136,-0.1963,-0.0839,0.1922,0.0741
0.156047,-0.1709,0.2107,-0.2192,-0.0839,0.1922,0.0741
0.156540,-0.1709,0.2107,-0.2192,-0.0839,0.1922,0.0741
0.156845,-0.1709,0.2107,-0.2192,-0.0851,0.1970,0.0766
0.157295,-0.1044,0.1414,-0.2482,-0.0851,0.1970,0.0766
0.157764,-0.1044,0.1414,-0.2482,-0.0851,0.1970,0.0766
0.158069,-0.1044,0.1414,-0.2482,-0.0888,0.1995,0.0741
0.158415,-0.0004,0.0239,-0.2586,-0.0888,0.1995,0.0741
0.158859,-0.0004,0.0239,-0.2586,-0.0888,0.1995,0.0741
0.159180,-0.0004,0.0239,-0.2586,-0.0912,0.2045,0.0704
0.159602,0.0804,-0.0533,-0.3229,-0.0912,0.2045,0.0704
0.160010,0.0804,-0.0533,-0.3229,-0.0912,0.2045,0.0704
0.160308,0.0804,-0.0533,-0.3229,-0.0961,0.2080,0.0644
0.160752,0.1769,-0.0683,-0.3194,-0.0961,0.2080,0.0644
0.161246,0.1769,-0.0683,-0.3194,-0.0961,0.2080,0.0644
0.161641,0.1769,-0.0683,-0.3194,-0.1022,0.2130,0.0594
0.162110,0.2354,-0.1398,-0.3359,-0.1022,0.2130,0.0594
0.162568,0.2354,-0.1398,-0.3359,-0.1022,0.2130,0.0594
0.162884,0.2354,-0.1398,-0.3359,-0.1096,0.2155,0.0496
0.163323,0.2319,-0.1492,-0.3296,-0.1096,0.2155,0.0496
0.163869,0.2319,-0.1492,-0.3296,-0.1096,0.2155,0.0496
0.164207,0.2319,-0.1492,-0.3296,-0.1144,0.2179,0.0411
0.164645,0.2236,-0.1516,-0.3281,-0.1144,0.2179,0.0411
0.165110,0.2236,-0.1516,-0.3281,-0.1144,0.2179,0.0411
0.165857,0.2236,-0.1516,-0.3281,-0.1206,0.2155,0.0338
0.166743,0.2613,-0.1398,-0.3339,-0.1206,0.2155,0.0338
0.167569,0.2613,-0.1398,-0.3339,-0.1206,0.2155,0.0338
0.168262,0.2613,-0.1398,-0.3339,-0.1266,0.2142,0.0252
0.169359,0.2598,-0.1317,-0.3265,-0.1266,0.2142,0.0252
0.170516,0.2598,-0.1317,-0.3265,-0.1266,0.2142,0.0252
0.171201,0.2598,-0.1317,-0.3265,-0.1303,0.2105,0.0166
0.172265,0.2274,-0.1029,-0.3233,-0.1303,0.2105,0.0166
0.173143,0.2274,-0.1029,-0.3233,-0.1303,0.2105,0.0166
0.173874,0.2274,-0.1029,-0.3233,-0.1352,0.2093,0.0081
0.174898,0.2242,-0.1207,-0.3001,-0.1352,0.2093,0.0081
0.175523,0.2242,-0.1207,-0.3001,-0.1352,0.2093,0.0081
0.175863,0.2242,-0.1207,-0.3001,-0.1401,0.2057,-0.0004
0.176235,0.2039,-0.1174,-0.2908,-0.1401,0.2057,-0.0004
0.176685,0.2039,-0.1174,-0.2908,-0.1401,0.2057,-0.0004
0.177045,0.2039,-0.1174,-0.2908,-0.1449,0.2057,-0.0091
0.177507,0.0912,-0.0405,-0.3376,-0.1449,0.2057,-0.0091
0.177941,0.0912,-0.0405,-0.3376,-0.1449,0.2057,-0.0091
0.178239,0.0912,-0.0405,-0.3376,-0.1523,0.2093,-0.0102
0.178617,-0.3336,0.1629,-0.4329,-0.1523,0.2093,-0.0102
0.179869,-0.3336,0.1629,-0.4329,-0.1523,0.2093,-0.0102
0.180236,-0.3336,0.1629,-0.4329,-0.1584,0.2118,-0.0016
0.180681,-0.3921,0.1494,-0.4094,-0.1584,0.2118,-0.0016
0.187882,-0.3921,0.1494,-0.4094,-0.1584,0.2118,-0.0016
0.188390,-0.3921,0.1494,-0.4094,-0.1646,0.2105,0.0056
0.188917,-0.3377,0.1420,-0.3529,-0.1646,0.2105,0.0056
0.189565,-0.3377,0.1420,-0.3529,-0.1646,0.2105,0.0056
0.189908,-0.3377,0.1420,-0.3529,-0.1706,0.2068,0.0129
0.190365,-0.2716,0.1159,-0.2964,-0.1706,0.2068,0.0129
0.190835,-0.2716,0.1159,-0.2964,-0.1706,0.2068,0.0129
0.191162,-0.2716,0.1159,-0.2964,-0.1743,0.1983,0.0179
0.191596,-0.2708,0.1047,-0.2920,-0.1743,0.1983,0.0179
0.192046,-0.2708,0.1047,-0.2920,-0.1743,0.1983,0.0179
0.192348,-0.2708,0.1047,-0.2920,-0.1779,0.1873,0.0203
0.192752,-0.3009,0.0979,-0.2346,-0.1779,0.1873,0.0203
0.193169,-0.3009,0.0979,-0.2346,-0.1779,0.1873,0.0203
0.193544,-0.3009,0.0979,-0.2346,-0.1804,0.1787,0.0239
0.193986,-0.2693,0.0821,-0.2093,-0.1804,0.1787,0.0239
0.194435,-0.2693,0.0821,-0.2093,-0.1804,0.1787,0.0239
0.194739,-0.2693,0.0821,-0.2093,-0.1841,0.1715,0.0264
0.195199,-0.2680,0.0645,-0.2270,-0.1841,0.1715,0.0264
0.195628,-0.2680,0.0645,-0.2270,-0.1841,0.1715,0.0264
0.195926,-0.2680,0.0645,-0.2270,-0.1841,0.1665,0.0264
0.196237,-0.2559,0.0101,-0.2158,-0.1841,0.1665,0.0264
0.196772,-0.2559,0.0101,-0.2158,-0.1841,0.1665,0.0264
0.197141,-0.2559,0.0101,-0.2158,-0.1865,0.1592,0.0289
0.197686,-0.1633,0.0399,-0.1637,-0.1865,0.1592,0.0289
0.198170,-0.1633,0.0399,-0.1637,-0.1865,0.1592,0.0289
0.198496,-0.1633,0.0399,-0.1637,-0.1865,0.1519,0.0289
0.198902,-0.1728,0.0057,-0.1216,-0.1865,0.1519,0.0289
0.199377,-0.1728,0.0057,-0.1216,-0.1865,0.1519,0.0289
0.199699,-0.1728,0.0057,-0.1216,-0.1877,0.1445,0.0276
0.200129,-0.1447,0.0265,-0.1364,-0.1877,0.1445,0.0276
0.200574,-0.1447,0.0265,-0.1364,-0.1877,0.1445,0.0276
0.200884,-0.1447,0.0265,-0.1364,-0.1865,0.1347,0.0276
0.201341,-0.1358,0.0133,-0.1304,-0.1865,0.1347,0.0276
0.201845,-0.1358,0.0133,-0.1304,-0.1865,0.1347,0.0276
0.202167,-0.1358,0.0133,-0.1304,-0.1877,0.1262,0.0289
0.202468,-0.1321,0.0171,-0.1073,-0.1877,0.1262,0.0289
0.202925,-0.1321,0.0171,-0.1073,-0.1877,0.1262,0.0289
0.203246,-0.1321,0.0171,-0.1073,-0.1877,0.1189,0.0301
0.203656,-0.1523,0.0240,-0.0892,-0.1877,0.1189,0.0301
0.204068,-0.1523,0.0240,-0.0892,-0.1877,0.1189,0.0301
0.204371,-0.1523,0.0240,-0.0892,-0.1889,0.1115,0.0314
0.204843,-0.1866,-0.0009,-0.0972,-0.1889,0.1115,0.0314
0.205349,-0.1866,-0.0009,-0.0972,-0.1889,0.1115,0.0314
0.205702,-0.1866,-0.0009,-0.0972,-0.1902,0.1067,0.0338
0.206148,-0.2096,-0.0039,-0.0840,-0.1902,0.1067,0.0338
0.206595,-0.2096,-0.0039,-0.0840,-0.1902,0.1067,0.0338
0.206885,-0.2096,-0.0039,-0.0840,-0.1889,0.1042,0.0362
0.207266,-0.2125,-0.0166,-0.0730,-0.1889,0.1042,0.0362
0.207655,-0.2125,-0.0166,-0.0730,-0.1889,0.1042,0.0362
0.207942,-0.2125,-0.0166,-0.0730,-0.1914,0.1030,0.0386
0.208940,-0.1917,-0.0173,-0.0481,-0.1914,0.1030,0.0386
0.209424,-0.1917,-0.0173,-0.0481,-0.1914,0.1030,0.0386
0.209752,-0.1917,-0.0173,-0.0481,-0.1926,0.1006,0.0424
0.210164,-0.2161,-0.0335,0.0108,-0.1926,0.1006,0.0424
0.210650,-0.2161,-0.0335,0.0108,-0.1926,0.1006,0.0424
0.210971,-0.2161,-0.0335,0.0108,-0.1926,0.0969,0.0447
0.211372,-0.1781,-0.0368,0.0077,-0.1926,0.0969,0.0447
0.211795,-0.1781,-0.0368,0.0077,-0.1926,0.0969,0.0447
0.212106,-0.1781,-0.0368,0.0077,-0.1914,0.0969,0.0472
0.212458,-0.1724,-0.0460,0.0306,-0.1914,0.0969,0.0472
0.212885,-0.1724,-0.0460,0.0306,-0.1914,0.0969,0.0472
0.213226,-0.1724,-0.0460,0.0306,-0.1914,0.0957,0.0484
0.213713,-0.1245,-0.0174,0.0704,-0.1914,0.0957,0.0484
0.214141,-0.1245,-0.0174,0.0704,-0.1914,0.0957,0.0484
0.214448,-0.1245,-0.0174,0.0704,-0.1902,0.0945,0.0484
0.214827,-0.0831,-0.0505,0.1041,-0.1902,0.0945,0.0484
0.215283,-0.0831,-0.0505,0.1041,-0.1902,0.0945,0.0484
0.215618,-0.0831,-0.0505,0.1041,-0.1889,0.0932,0.0472
0.215991,-0.0312,-0.0557,0.1470,-0.1889,0.0932,0.0472
0.216430,-0.0312,-0.0557,0.1470,-0.1889,0.0932,0.0472
0.216727,-0.0312,-0.0557,0.1470,-0.1854,0.0908,0.0424
0.217080,-0.0293,-0.0510,0.1766,-0.1854,0.0908,0.0424
0.217589,-0.0293,-0.0510,0.1766,-0.1854,0.0908,0.0424
0.217944,-0.0293,-0.0510,0.1766,-0.1816,0.0884,0.0411
0.218374,0.0153,-0.0464,0.1874,-0.1816,0.0884,0.0411
0.218829,0.0153,-0.0464,0.1874,-0.1816,0.0884,0.0411
0.219140,0.0153,-0.0464,0.1874,-0.1767,0.0872,0.0386
0.219530,0.0028,-0.0796,0.2052,-0.1767,0.0872,0.0386
0.219989,0.0028,-0.0796,0.2052,-0.1767,0.0872,0.0386
0.220342,0.0028,-0.0796,0.2052,-0.1719,0.0847,0.0349
0.220789,-0.0005,-0.0592,0.2041,-0.1719,0.0847,0.0349
0.221301,-0.0005,-0.0592,0.2041,-0.1719,0.0847,0.0349
0.221619,-0.0005,-0.0592,0.2041,-0.1634,0.0847,0.0314
0.222020,-0.0208,-0.0429,0.1981,-0.1634,0.0847,0.0314
0.222457,-0.0208,-0.0429,0.1981,-0.1634,0.0847,0.0314
0.222790,-0.0208,-0.0429,0.1981,-0.1596,0.0835,0.0301
0.223173,-0.0449,-0.0508,0.1989,-0.1596,0.0835,0.0301
0.223589,-0.0449,-0.0508,0.1989,-0.1596,0.0835,0.0301
0.223912,-0.0449,-0.0508,0.1989,-0.1536,0.0810,0.0301
0.224317,-0.0689,-0.0387,0.2100,-0.1536,0.0810,0.0301
0.224790,-0.0689,-0.0387,0.2100,-0.1536,0.0810,0.0301
0.225245,-0.0689,-0.0387,0.2100,-0.1486,0.0762,0.0276
0.225677,-0.0581,-0.0210,0.2000,-0.1486,0.0762,0.0276
0.226141,-0.0581,-0.0210,0.2000,-0.1486,0.0762,0.0276
0.226451,-0.0581,-0.0210,0.2000,-0.1437,0.0749,0.0276
0.226842,-0.0514,-0.0461,0.1961,-0.1437,0.0749,0.0276
0.227263,-0.0514,-0.0461,0.1961,-0.1437,0.0749,0.0276
0.227585,-0.0514,-0.0461,0.1961,-0.1364,0.0749,0.0276
0.227889,-0.0447,-0.0376,0.1692,-0.1364,0.0749,0.0276
0.228332,-0.0447,-0.0376,0.1692,-0.1364,0.0749,0.0276
0.230015,-0.0447,-0.0376,0.1692,-0.1316,0.0762,0.0252
0.230562,-0.0736,-0.0322,0.1663,-0.1316,0.0762,0.0252
0.231078,-0.0736,-0.0322,0.1663,-0.1316,0.0762,0.0252
0.231376,-0.0736,-0.0322,0.1663,-0.1266,0.0774,0.0264
0.231729,-0.0648,-0.0309,0.1436,-0.1266,0.0774,0.0264
0.232161,-0.0648,-0.0309,0.1436,-0.1266,0.0774,0.0264
0.232431,-0.0648,-0.0309,0.1436,-0.1206,0.0786,0.0239
0.232761,-0.0766,-0.0058,0.1288,-0.1206,0.0786,0.0239
0.233180,-0.0766,-0.0058,0.1288,-0.1206,0.0786,0.0239
0.233504,-0.0766,-0.0058,0.1288,-0.1156,0.0810,0.0239
0.233871,-0.0704,-0.0110,0.1302,-0.1156,0.0810,0.0239
0.234261,-0.0704,-0.0110,0.1302,-0.1156,0.0810,0.0239
0.234551,-0.0704,-0.0110,0.1302,-0.1096,0.0822,0.0228
0.234885,-0.0773,0.0087,0.1515,-0.1096,0.0822,0.0228
0.235295,-0.0773,0.0087,0.1515,-0.1096,0.0822,0.0228
0.235541,-0.0773,0.0087,0.1515,-0.1011,0.0847,0.0252
0.235842,-0.0423,-0.0148,0.1410,-0.1011,0.0847,0.0252
0.236233,-0.0423,-0.0148,0.1410,-0.1011,0.0847,0.0252
0.236471,-0.0423,-0.0148,0.1410,-0.0949,0.0859,0.0239
0.236799,-0.0424,-0.0124,0.0974,-0.0949,0.0859,0.0239
0.237171,-0.0424,-0.0124,0.0974,-0.0949,0.0859,0.0239
0.237476,-0.0424,-0.0124,0.0974,-0.0888,0.0896,0.0239
0.237850,-0.0233,-0.0012,0.0950,-0.0888,0.0896,0.0239
0.238229,-0.0233,-0.0012,0.0950,-0.0888,0.0896,0.0239
0.238482,-0.0233,-0.0012,0.0950,-0.0814,0.0908,0.0216
0.238855,-0.0282,-0.0368,0.0744,-0.0814,0.0908,0.0216
0.239198,-0.0282,-0.0368,0.0744,-0.0814,0.0908,0.0216
0.239446,-0.0282,-0.0368,0.0744,-0.0716,0.0945,0.0203
0.239699,0.0067,-0.0418,0.0700,-0.0716,0.0945,0.0203
0.240086,0.0067,-0.0418,0.0700,-0.0716,0.0945,0.0203
0.240331,0.0067,-0.0418,0.0700,-0.0619,0.0957,0.0166
0.240639,-0.0014,-0.0299,0.0716,-0.0619,0.0957,0.0166
0.271909,-0.0014,-0.0299,0.0716,-0.0619,0.0957,0.0166
0.272247,-0.0014,-0.0299,0.0716,-0.0558,0.0982,0.0154
0.272702,0.0363,-0.0095,0.0214,-0.0558,0.0982,0.0154
0.273112,0.0363,-0.0095,0.0214,-0.0558,0.0982,0.0154
0.273396,0.0363,-0.0095,0.0214,-0.0473,0.1006,0.0118
0.273640,0.0361,-0.0420,0.0061,-0.0473,0.1006,0.0118
0.274028,0.0361,-0.0420,0.0061,-0.0473,0.1006,0.0118
0.274270,0.0361,-0.0420,0.0061,-0.0386,0.1018,0.0069
0.274631,0.0637,-0.0428,-0.0271,-0.0386,0.1018,0.0069
0.275006,0.0637,-0.0428,-0.0271,-0.0386,0.1018,0.0069
0.275240,0.0637,-0.0428,-0.0271,-0.0301,0.1030,0.0021
0.275554,0.0775,-0.0917,-0.0754,-0.0301,0.1030,0.0021
0.275903,0.0775,-0.0917,-0.0754,-0.0301,0.1030,0.0021
0.276144,0.0775,-0.0917,-0.0754,-0.0228,0.1030,-0.0054
0.276418,0.0864,-0.0838,-0.1136,-0.0228,0.1030,-0.0054
0.276857,0.0864,-0.0838,-0.1136,-0.0228,0.1030,-0.0054
0.277376,0.0864,-0.0838,-0.1136,-0.0155,0.1042,-0.0089
0.278689,0.1122,-0.0932,-0.1685,-0.0155,0.1042,-0.0089
0.280176,0.1122,-0.0932,-0.1685,-0.0155,0.1042,-0.0089
0.280583,0.1122,-0.0932,-0.1685,-0.0081,0.1042,-0.0139
0.281068,0.0882,-0.1137,-0.1926,-0.0081,0.1042,-0.0139
0.281659,0.0882,-0.1137,-0.1926,-0.0081,0.1042,-0.0139
0.282041,0.0882,-0.1137,-0.1926,-0.0021,0.1055,-0.0199
0.282495,0.0882,-0.0806,-0.2475,-0.0021,0.1055,-0.0199
0.282982,0.0882,-0.0806,-0.2475,-0.0021,0.1055,-0.0199
0.283318,0.0882,-0.0806,-0.2475,0.0029,0.1092,-0.0249
0.283722,0.1045,-0.0636,-0.2883,0.0029,0.1092,-0.0249
0.284217,0.1045,-0.0636,-0.2883,0.0029,0.1092,-0.0249
0.284561,0.1045,-0.0636,-0.2883,0.0089,0.1140,-0.0286
0.284993,0.0620,-0.0470,-0.3382,0.0089,0.1140,-0.0286
0.285543,0.0620,-0.0470,-0.3382,0.0089,0.1140,-0.0286
0.285940,0.0620,-0.0470,-0.3382,0.0139,0.1177,-0.0322
0.286406,0.0686,-0.0474,-0.3788,0.0139,0.1177,-0.0322
0.286902,0.0686,-0.0474,-0.3788,0.0139,0.1177,-0.0322
0.287293,0.0686,-0.0474,-0.3788,0.0187,0.1250,-0.0359
0.287778,0.0406,-0.0290,-0.4044,0.0187,0.1250,-0.0359
0.288248,0.0406,-0.0290,-0.4044,0.0187,0.1250,-0.0359
0.288668,0.0406,-0.0290,-0.4044,0.0224,0.1335,-0.0384
0.289170,0.0058,-0.0089,-0.4520,0.0224,0.1335,-0.0384
0.289693,0.0058,-0.0089,-0.4520,0.0224,0.1335,-0.0384
0.290061,0.0058,-0.0089,-0.4520,0.0249,0.1445,-0.0396
0.290496,-0.0405,0.0142,-0.4976,0.0249,0.1445,-0.0396
0.290936,-0.0405,0.0142,-0.4976,0.0249,0.1445,-0.0396
0.291297,-0.0405,0.0142,-0.4976,0.0272,0.1555,-0.0396
0.291709,-0.0724,0.0230,-0.5590,0.0272,0.1555,-0.0396
0.292184,-0.0724,0.0230,-0.5590,0.0272,0.1555,-0.0396
0.292541,-0.0724,0.0230,-0.5590,0.0285,0.1702,-0.0359
0.292914,-0.1160,0.0529,-0.6154,0.0285,0.1702,-0.0359
0.293441,-0.1160,0.0529,-0.6154,0.0285,0.1702,-0.0359
0.293839,-0.1160,0.0529,-0.6154,0.0297,0.1849,-0.0322
0.294232,-0.1610,0.0656,-0.6537,0.0297,0.1849,-0.0322
0.294687,-0.1610,0.0656,-0.6537,0.0297,0.1849,-0.0322
0.295028,-0.1610,0.0656,-0.6537,0.0261,0.2020,-0.0285
0.295472,-0.1897,0.0714,-0.6721,0.0261,0.2020,-0.0285
0.295945,-0.1897,0.0714,-0.6721,0.0261,0.2020,-0.0285
0.296313,-0.1897,0.0714,-0.6721,0.0261,0.2190,-0.0249
0.296699,-0.2080,0.0901,-0.6804,0.0261,0.2190,-0.0249
0.297168,-0.2080,0.0901,-0.6804,0.0261,0.2190,-0.0249
0.297610,-0.2080,0.0901,-0.6804,0.0224,0.2375,-0.0164
0.298014,-0.1949,0.0840,-0.6876,0.0224,0.2375,-0.0164
0.298531,-0.1949,0.0840,-0.6876,0.0224,0.2375,-0.0164
0.298905,-0.1949,0.0840,-0.6876,0.0199,0.2545,-0.0126
0.299372,-0.1376,0.0570,-0.6989,0.0199,0.2545,-0.0126
0.299843,-0.1376,0.0570,-0.6989,0.0199,0.2545,-0.0126
0.300201,-0.1376,0.0570,-0.6989,0.0175,0.2717,-0.0054
0.300679,-0.1081,0.0530,-0.6673,0.0175,0.2717,-0.0054
0.301127,-0.1081,0.0530,-0.6673,0.0175,0.2717,-0.0054
0.301490,-0.1081,0.0530,-0.6673,0.0162,0.2887,-0.0041
0.301964,-0.0485,0.0311,-0.6426,0.0162,0.2887,-0.0041
0.302379,-0.0485,0.0311,-0.6426,0.0162,0.2887,-0.0041
0.302664,-0.0485,0.0311,-0.6426,0.0139,0.3046,-0.0054
0.303021,-0.0104,-0.0037,-0.6059,0.0139,0.3046,-0.0054
0.303442,-0.0104,-0.0037,-0.6059,0.0139,0.3046,-0.0054
0.303742,-0.0104,-0.0037,-0.6059,0.0114,0.3193,-0.0041
0.304097,0.0377,-0.0474,-0.5742,0.0114,0.3193,-0.0041
0.304503,0.0377,-0.0474,-0.5742,0.0114,0.3193,-0.0041
0.304789,0.0377,-0.0474,-0.5742,0.0114,0.3315,-0.0066
0.305145,0.0831,-0.1097,-0.5327,0.0114,0.3315,-0.0066
0.305639,0.0831,-0.1097,-0.5327,0.0114,0.3315,-0.0066
0.305938,0.0831,-0.1097,-0.5327,0.0102,0.3413,-0.0126
0.306292,0.0955,-0.1578,-0.5321,0.0102,0.3413,-0.0126
0.306730,0.0955,-0.1578,-0.5321,0.0102,0.3413,-0.0126
0.307030,0.0955,-0.1578,-0.5321,0.0102,0.3486,-0.0224
0.307395,0.1252,-0.1650,-0.5075,0.0102,0.3486,-0.0224
0.307828,0.1252,-0.1650,-0.5075,0.0102,0.3486,-0.0224
0.308119,0.1252,-0.1650,-0.5075,0.0114,0.3572,-0.0334
0.308547,0.1400,-0.1749,-0.4659,0.0114,0.3572,-0.0334
0.318042,0.1400,-0.1749,-0.4659,0.0114,0.3572,-0.0334
0.318346,0.1400,-0.1749,-0.4659,0.0126,0.3620,-0.0432
0.318747,0.1788,-0.2039,-0.4413,0.0126,0.3620,-0.0432
0.319149,0.1788,-0.2039,-0.4413,0.0126,0.3620,-0.0432
0.319381,0.1788,-0.2039,-0.4413,0.0139,0.3670,-0.0542
0.319727,0.1559,-0.2128,-0.4168,0.0139,0.3670,-0.0542
0.320080,0.1559,-0.2128,-0.4168,0.0139,0.3670,-0.0542
0.320356,0.1559,-0.2128,-0.4168,0.0151,0.3718,-0.0676
0.320702,0.1611,-0.1917,-0.3682,0.0151,0.3718,-0.0676
0.321055,0.1611,-0.1917,-0.3682,0.0151,0.3718,-0.0676
0.321330,0.1611,-0.1917,-0.3682,0.0175,0.3730,-0.0811
0.321694,0.1006,-0.1985,-0.3517,0.0175,0.3730,-0.0811
0.322044,0.1006,-0.1985,-0.3517,0.0175,0.3730,-0.0811
0.322285,0.1006,-0.1985,-0.3517,0.0199,0.3755,-0.0921
0.322582,0.0684,-0.1863,-0.3290,0.0199,0.3755,-0.0921
0.322924,0.0684,-0.1863,-0.3290,0.0199,0.3755,-0.0921
0.323170,0.0684,-0.1863,-0.3290,0.0236,0.3778,-0.1006
0.323490,0.0534,-0.1525,-0.3353,0.0236,0.3778,-0.1006
0.325014,0.0534,-0.1525,-0.3353,0.0236,0.3778,-0.1006
0.325312,0.0534,-0.1525,-0.3353,0.0261,0.3828,-0.1104
0.325683,0.0008,-0.1605,-0.3065,0.0261,0.3828,-0.1104
0.327513,0.0008,-0.1605,-0.3065,0.0261,0.3828,-0.1104
0.327787,0.0008,-0.1605,-0.3065,0.0309,0.3853,-0.1189
0.328162,-0.0226,-0.1456,-0.2578,0.0309,0.3853,-0.1189
0.340600,-0.0226,-0.1456,-0.2578,0.0309,0.3853,-0.1189
0.341332,-0.0226,-0.1456,-0.2578,0.0346,0.3877,-0.1250
0.342198,-0.0469,-0.1149,-0.2348,0.0346,0.3877,-0.1250
0.342935,-0.0469,-0.1149,-0.2348,0.0346,0.3877,-0.1250
0.343570,-0.0469,-0.1149,-0.2348,0.0407,0.3901,-0.1312
0.344277,-0.0509,-0.1322,-0.2130,0.0407,0.3901,-0.1312
0.344937,-0.0509,-0.1322,-0.2130,0.0407,0.3901,-0.1312
0.345733,-0.0509,-0.1322,-0.2130,0.0444,0.3938,-0.1385
0.346314,-0.0319,-0.1086,-0.2041,0.0444,0.3938,-0.1385
0.346743,-0.0319,-0.1086,-0.2041,0.0444,0.3938,-0.1385
0.347005,-0.0319,-0.1086,-0.2041,0.0492,0.3963,-0.1434
0.347349,-0.0240,-0.1280,-0.1991,0.0492,0.3963,-0.1434
0.347803,-0.0240,-0.1280,-0.1991,0.0492,0.3963,-0.1434
0.348112,-0.0240,-0.1280,-0.1991,0.0566,0.3963,-0.1519
0.348449,-0.0119,-0.1455,-0.2022,0.0566,0.3963,-0.1519
0.348793,-0.0119,-0.1455,-0.2022,0.0566,0.3963,-0.1519
0.349050,-0.0119,-0.1455,-0.2022,0.0615,0.3950,-0.1605
0.349393,0.0030,-0.1581,-0.2012,0.0615,0.3950,-0.1605
0.349756,0.0030,-0.1581,-0.2012,0.0615,0.3950,-0.1605
0.350007,0.0030,-0.1581,-0.2012,0.0689,0.3840,-0.1702
0.350370,0.0623,-0.1130,-0.2321,0.0689,0.3840,-0.1702
0.350727,0.0623,-0.1130,-0.2321,0.0689,0.3840,-0.1702
0.351035,0.0623,-0.1130,-0.2321,0.0725,0.3645,-0.1825
0.351374,0.2049,-0.0664,-0.3770,0.0725,0.3645,-0.1825
0.351741,0.2049,-0.0664,-0.3770,0.0725,0.3645,-0.1825
0.351972,0.2049,-0.0664,-0.3770,0.0737,0.3400,-0.1984
0.352317,0.2350,-0.1326,-0.4759,0.0737,0.3400,-0.1984
0.352689,0.2350,-0.1326,-0.4759,0.0737,0.3400,-0.1984
0.352944,0.2350,-0.1326,-0.4759,0.0725,0.3278,-0.2155
0.353239,0.2002,-0.2145,-0.4680,0.0725,0.3278,-0.2155
0.353727,0.2002,-0.2145,-0.4680,0.0725,0.3278,-0.2155
0.354018,0.2002,-0.2145,-0.4680,0.0725,0.3253,-0.2302
0.354354,0.1534,-0.2921,-0.4210,0.0725,0.3253,-0.2302
0.357374,0.1534,-0.2921,-0.4210,0.0725,0.3253,-0.2302
0.357693,0.1534,-0.2921,-0.4210,0.0725,0.3266,-0.2399
0.358160,0.0829,-0.2995,-0.4302,0.0725,0.3266,-0.2399
0.358573,0.0829,-0.2995,-0.4302,0.0725,0.3266,-0.2399
0.358823,0.0829,-0.2995,-0.4302,0.0712,0.3315,-0.2485
0.359178,0.0629,-0.3120,-0.4652,0.0712,0.3315,-0.2485
0.360856,0.0629,-0.3120,-0.4652,0.0712,0.3315,-0.2485
0.361114,0.0629,-0.3120,-0.4652,0.0725,0.3351,-0.2570
0.361539,0.0528,-0.2578,-0.4831,0.0725,0.3351,-0.2570
0.362778,0.0528,-0.2578,-0.4831,0.0725,0.3351,-0.2570
0.363020,0.0528,-0.2578,-0.4831,0.0762,0.3315,-0.2655
0.363310,0.0071,-0.2086,-0.5040,0.0762,0.3315,-0.2655
0.366040,0.0071,-0.2086,-0.5040,0.0762,0.3315,-0.2655
0.366398,0.0071,-0.2086,-0.5040,0.0786,0.3241,-0.2717
0.366821,-0.0458,-0.1788,-0.5429,0.0786,0.3241,-0.2717
0.367221,-0.0458,-0.1788,-0.5429,0.0786,0.3241,-0.2717
0.367464,-0.0458,-0.1788,-0.5429,0.0810,0.3131,-0.2790
0.367777,-0.0995,-0.0842,-0.5656,0.0810,0.3131,-0.2790
0.373526,-0.0995,-0.0842,-0.5656,0.0810,0.3131,-0.2790
0.373842,-0.0995,-0.0842,-0.5656,0.0847,0.3022,-0.2827
0.374270,-0.1423,-0.0498,-0.6312,0.0847,0.3022,-0.2827
0.374663,-0.1423,-0.0498,-0.6312,0.0847,0.3022,-0.2827
0.374894,-0.1423,-0.0498,-0.6312,0.0872,0.2912,-0.2863
0.375202,-0.2123,-0.0305,-0.6519,0.0872,0.2912,-0.2863
0.375828,-0.2123,-0.0305,-0.6519,0.0872,0.2912,-0.2863
0.376093,-0.2123,-0.0305,-0.6519,0.0884,0.2850,-0.2875
0.376395,-0.2463,0.0156,-0.7075,0.0884,0.2850,-0.2875
0.376772,-0.2463,0.0156,-0.7075,0.0884,0.2850,-0.2875
0.376992,-0.2463,0.0156,-0.7075,0.0872,0.2850,-0.2852
0.377297,-0.3189,0.0496,-0.7521,0.0872,0.2850,-0.2852
0.383306,-0.3189,0.0496,-0.7521,0.0872,0.2850,-0.2852
0.383838,-0.3189,0.0496,-0.7521,0.0859,0.2923,-0.2790
0.384327,-0.3884,0.0696,-0.7835,0.0859,0.2923,-0.2790
0.384880,-0.3884,0.0696,-0.7835,0.0859,0.2923,-0.2790
0.385213,-0.3884,0.0696,-0.7835,0.0835,0.3070,-0.2705
0.385793,-0.4335,0.1125,-0.8209,0.0835,0.3070,-0.2705
0.386341,-0.4335,0.1125,-0.8209,0.0835,0.3070,-0.2705
0.386755,-0.4335,0.1125,-0.8209,0.0810,0.3241,-0.2582
0.387158,-0.4950,0.1683,-0.8141,0.0810,0.3241,-0.2582
0.387667,-0.4950,0.1683,-0.8141,0.0810,0.3241,-0.2582
0.388001,-0.4950,0.1683,-0.8141,0.0749,0.3461,-0.2399
0.388421,-0.5508,0.1920,-0.8214,0.0749,0.3461,-0.2399
0.388935,-0.5508,0.1920,-0.8214,0.0749,0.3461,-0.2399
0.389337,-0.5508,0.1920,-0.8214,0.0689,0.3668,-0.2240
0.389870,-0.5823,0.1779,-0.8195,0.0689,0.3668,-0.2240
0.392472,-0.5823,0.1779,-0.8195,0.0689,0.3668,-0.2240
0.392851,-0.5823,0.1779,-0.8195,0.0627,0.3889,-0.2069
0.393423,-0.5842,0.2068,-0.7988,0.0627,0.3889,-0.2069
0.393922,-0.5842,0.2068,-0.7988,0.0627,0.3889,-0.2069
0.394269,-0.5842,0.2068,-0.7988,0.0566,0.4121,-0.1922
0.394693,-0.5936,0.2097,-0.7728,0.0566,0.4121,-0.1922
0.396352,-0.5936,0.2097,-0.7728,0.0566,0.4121,-0.1922
0.396708,-0.5936,0.2097,-0.7728,0.0492,0.4329,-0.1752
0.397206,-0.5706,0.1509,-0.7379,0.0492,0.4329,-0.1752
0.397773,-0.5706,0.1509,-0.7379,0.0492,0.4329,-0.1752
0.398118,-0.5706,0.1509,-0.7379,0.0432,0.4500,-0.1605
0.398572,-0.5724,0.1563,-0.7189,0.0432,0.4500,-0.1605
0.400852,-0.5724,0.1563,-0.7189,0.0432,0.4500,-0.1605
0.401535,-0.5724,0.1563,-0.7189,0.0334,0.4683,-0.1459
0.402211,-0.5538,0.1070,-0.6671,0.0334,0.4683,-0.1459
0.402787,-0.5538,0.1070,-0.6671,0.0334,0.4683,-0.1459
0.403173,-0.5538,0.1070,-0.6671,0.0249,0.4879,-0.1360
0.403674,-0.4730,0.0461,-0.6342,0.0249,0.4879,-0.1360
0.406395,-0.4730,0.0461,-0.6342,0.0249,0.4879,-0.1360
0.406762,-0.4730,0.0461,-0.6342,0.0162,0.5013,-0.1262
0.407283,-0.3924,-0.0076,-0.5675,0.0162,0.5013,-0.1262
0.407850,-0.3924,-0.0076,-0.5675,0.0162,0.5013,-0.1262
0.408135,-0.3924,-0.0076,-0.5675,0.0102,0.5123,-0.1202
0.408464,-0.3396,-0.0527,-0.4868,0.0102,0.5123,-0.1202
0.410142,-0.3396,-0.0527,-0.4868,0.0102,0.5123,-0.1202
0.410418,-0.3396,-0.0527,-0.4868,0.0004,0.5196,-0.1165
0.410805,-0.2827,-0.0745,-0.4443,0.0004,0.5196,-0.1165
0.416106,-0.2827,-0.0745,-0.4443,0.0004,0.5196,-0.1165
0.416806,-0.2827,-0.0745,-0.4443,-0.0081,0.5233,-0.1141
0.417770,-0.2260,-0.1548,-0.3828,-0.0081,0.5233,-0.1141
0.418329,-0.2260,-0.1548,-0.3828,-0.0081,0.5233,-0.1141
0.418604,-0.2260,-0.1548,-0.3828,-0.0155,0.5246,-0.1154
0.418971,-0.1488,-0.2344,-0.3317,-0.0155,0.5246,-0.1154
0.419356,-0.1488,-0.2344,-0.3317,-0.0155,0.5246,-0.1154
0.419589,-0.1488,-0.2344,-0.3317,-0.0203,0.5209,-0.1202
0.419987,-0.0707,-0.2857,-0.2736,-0.0203,0.5209,-0.1202
0.420373,-0.0707,-0.2857,-0.2736,-0.0203,0.5209,-0.1202
0.420632,-0.0707,-0.2857,-0.2736,-0.0276,0.5171,-0.1275
0.421015,0.0018,-0.3293,-0.2436,-0.0276,0.5171,-0.1275
0.421575,0.0018,-0.3293,-0.2436,-0.0276,0.5171,-0.1275
0.421964,0.0018,-0.3293,-0.2436,-0.0326,0.5099,-0.1361
0.422532,0.0708,-0.3745,-0.1948,-0.0326,0.5099,-0.1361
0.425683,0.0708,-0.3745,-0.1948,-0.0326,0.5099,-0.1361
0.426096,0.0708,-0.3745,-0.1948,-0.0375,0.5026,-0.1471
0.426681,0.1759,-0.4212,-0.1294,-0.0375,0.5026,-0.1471
0.427278,0.1759,-0.4212,-0.1294,-0.0375,0.5026,-0.1471
0.427666,0.1759,-0.4212,-0.1294,-0.0399,0.4903,-0.1605
0.428198,0.2315,-0.4383,-0.0861,-0.0399,0.4903,-0.1605
0.433297,0.2315,-0.4383,-0.0861,-0.0399,0.4903,-0.1605
0.433924,0.2315,-0.4383,-0.0861,-0.0424,0.4781,-0.1764
0.434550,0.2962,-0.4914,-0.0152,-0.0424,0.4781,-0.1764
0.435231,0.2962,-0.4914,-0.0152,-0.0424,0.4781,-0.1764
0.435634,0.2962,-0.4914,-0.0152,-0.0424,0.4646,-0.1947
0.436214,0.3601,-0.5409,0.0373,-0.0424,0.4646,-0.1947
0.436845,0.3601,-0.5409,0.0373,-0.0424,0.4646,-0.1947
0.437242,0.3601,-0.5409,0.0373,-0.0386,0.4476,-0.2130
0.437774,0.3948,-0.5772,0.0986,-0.0386,0.4476,-0.2130
0.438382,0.3948,-0.5772,0.0986,-0.0386,0.4476,-0.2130
0.438829,0.3948,-0.5772,0.0986,-0.0338,0.4280,-0.2350
0.439412,0.4372,-0.6123,0.1402,-0.0338,0.4280,-0.2350
0.440035,0.4372,-0.6123,0.1402,-0.0338,0.4280,-0.2350
0.440473,0.4372,-0.6123,0.1402,-0.0265,0.4085,-0.2582
0.441028,0.4831,-0.6716,0.1418,-0.0265,0.4085,-0.2582
0.441452,0.4831,-0.6716,0.1418,-0.0265,0.4085,-0.2582
0.441725,0.4831,-0.6716,0.1418,-0.0166,0.3877,-0.2827
0.441959,0.5465,-0.7169,0.1374,-0.0166,0.3877,-0.2827
0.444212,0.5465,-0.7169,0.1374,-0.0166,0.3877,-0.2827
0.444461,0.5465,-0.7169,0.1374,-0.0045,0.3645,-0.3083
0.444817,0.5587,-0.7425,0.1322,-0.0045,0.3645,-0.3083
0.445324,0.5587,-0.7425,0.1322,-0.0045,0.3645,-0.3083
0.445619,0.5587,-0.7425,0.1322,0.0089,0.3450,-0.3365
0.445966,0.5774,-0.7503,0.1328,0.0089,0.3450,-0.3365
0.451022,0.5774,-0.7503,0.1328,0.0089,0.3450,-0.3365
0.451557,0.5774,-0.7503,0.1328,0.0249,0.3253,-0.3670
0.452095,0.5800,-0.7713,0.1335,0.0249,0.3253,-0.3670
0.452645,0.5800,-0.7713,0.1335,0.0249,0.3253,-0.3670
0.453050,0.5800,-0.7713,0.1335,0.0456,0.3046,-0.3963
0.453576,0.5941,-0.7698,0.1303,0.0456,0.3046,-0.3963
0.454120,0.5941,-0.7698,0.1303,0.0456,0.3046,-0.3963
0.454755,0.5941,-0.7698,0.1303,0.0689,0.2838,-0.4243
0.455385,0.5814,-0.7552,0.1084,0.0689,0.2838,-0.4243
0.456116,0.5814,-0.7552,0.1084,0.0689,0.2838,-0.4243
0.456578,0.5814,-0.7552,0.1084,0.0920,0.2630,-0.4513
0.457173,0.5095,-0.7150,0.0550,0.0920,0.2630,-0.4513
0.457711,0.5095,-0.7150,0.0550,0.0920,0.2630,-0.4513
0.458013,0.5095,-0.7150,0.0550,0.1177,0.2447,-0.4781
0.458407,0.4361,-0.6643,-0.0169,0.1177,0.2447,-0.4781
0.460774,0.4361,-0.6643,-0.0169,0.1177,0.2447,-0.4781
0.461098,0.4361,-0.6643,-0.0169,0.1445,0.2300,-0.5013
0.461597,0.3226,-0.6080,-0.0905,0.1445,0.2300,-0.5013
0.462163,0.3226,-0.6080,-0.0905,0.1445,0.2300,-0.5013
0.462479,0.3226,-0.6080,-0.0905,0.1739,0.2190,-0.5185
0.462916,0.1888,-0.5378,-0.1665,0.1739,0.2190,-0.5185
0.467515,0.1888,-0.5378,-0.1665,0.1739,0.2190,-0.5185
0.468417,0.1888,-0.5378,-0.1665,0.2020,0.2105,-0.5331
0.468867,0.0059,-0.4321,-0.2630,0.2020,0.2105,-0.5331
0.469458,0.0059,-0.4321,-0.2630,0.2020,0.2105,-0.5331
0.469813,0.0059,-0.4321,-0.2630,0.2277,0.2105,-0.5416
0.470251,-0.1771,-0.3474,-0.3762,0.2277,0.2105,-0.5416
0.470761,-0.1771,-0.3474,-0.3762,0.2277,0.2105,-0.5416
0.471064,-0.1771,-0.3474,-0.3762,0.2533,0.2155,-0.5416
0.471460,-0.3564,-0.2289,-0.4909,0.2533,0.2155,-0.5416
0.471946,-0.3564,-0.2289,-0.4909,0.2533,0.2155,-0.5416
0.472234,-0.3564,-0.2289,-0.4909,0.2753,0.2277,-0.5343
0.472697,-0.5498,-0.1334,-0.5962,0.2753,0.2277,-0.5343
0.474548,-0.5498,-0.1334,-0.5962,0.2753,0.2277,-0.5343
0.474863,-0.5498,-0.1334,-0.5962,0.2912,0.2497,-0.5196
0.475258,-0.7511,-0.0237,-0.7221,0.2912,0.2497,-0.5196
0.476597,-0.7511,-0.0237,-0.7221,0.2912,0.2497,-0.5196
0.476905,-0.7511,-0.0237,-0.7221,0.3010,0.2790,-0.4988
0.477661,-0.8988,0.0355,-0.8647,0.3010,0.2790,-0.4988
0.482082,-0.8988,0.0355,-0.8647,0.3010,0.2790,-0.4988
0.482906,-0.8988,0.0355,-0.8647,0.3083,0.3156,-0.4708
0.484751,-1.0464,0.1611,-0.9831,0.3083,0.3156,-0.4708
0.486146,-1.0464,0.1611,-0.9831,0.3083,0.3156,-0.4708
0.487005,-1.0464,0.1611,-0.9831,0.3058,0.3596,-0.4378
0.488092,-1.1462,0.2305,-1.1022,0.3058,0.3596,-0.4378
0.489136,-1.1462,0.2305,-1.1022,0.3058,0.3596,-0.4378
0.489918,-1.1462,0.2305,-1.1022,0.3022,0.4085,-0.3988
0.490621,-1.2220,0.3266,-1.1960,0.3022,0.4085,-0.3988
0.491423,-1.2220,0.3266,-1.1960,0.3022,0.4085,-0.3988
0.492015,-1.2220,0.3266,-1.1960,0.2925,0.4586,-0.3572
0.492791,-1.2709,0.3727,-1.2517,0.2925,0.4586,-0.3572
0.493644,-1.2709,0.3727,-1.2517,0.2925,0.4586,-0.3572
0.494192,-1.2709,0.3727,-1.2517,0.2765,0.5159,-0.3145
0.494988,-1.2709,0.4418,-1.2922,0.2765,0.5159,-0.3145
0.495741,-1.2709,0.4418,-1.2922,0.2765,0.5159,-0.3145
0.496314,-1.2709,0.4418,-1.2922,0.2582,0.5721,-0.2692
0.497122,-1.2620,0.4432,-1.3496,0.2582,0.5721,-0.2692
0.498493,-1.2620,0.4432,-1.3496,0.2582,0.5721,-0.2692
0.499087,-1.2620,0.4432,-1.3496,0.2362,0.6284,-0.2265
0.499879,-1.2511,0.4718,-1.3569,0.2362,0.6284,-0.2265
0.500664,-1.2511,0.4718,-1.3569,0.2362,0.6284,-0.2265
0.501210,-1.2511,0.4718,-1.3569,0.2118,0.6797,-0.1874
0.501999,-1.1956,0.4262,-1.3623,0.2118,0.6797,-0.1874
0.502806,-1.1956,0.4262,-1.3623,0.2118,0.6797,-0.1874
0.503373,-1.1956,0.4262,-1.3623,0.1860,0.7261,-0.1507
0.504126,-1.1344,0.4060,-1.3216,0.1860,0.7261,-0.1507
0.504893,-1.1344,0.4060,-1.3216,0.1860,0.7261,-0.1507
0.505530,-1.1344,0.4060,-1.3216,0.1580,0.7664,-0.1165
0.506250,-1.0177,0.3922,-1.2430,0.1580,0.7664,-0.1165
0.507048,-1.0177,0.3922,-1.2430,0.1580,0.7664,-0.1165
0.507399,-1.0177,0.3922,-1.2430,0.1324,0.8007,-0.0859
0.507827,-0.8697,0.3162,-1.1613,0.1324,0.8007,-0.0859
0.508239,-0.8697,0.3162,-1.1613,0.1324,0.8007,-0.0859
0.508571,-0.8697,0.3162,-1.1613,0.1055,0.8287,-0.0616
0.508979,-0.7695,0.2506,-1.0828,0.1055,0.8287,-0.0616
0.509705,-0.7695,0.2506,-1.0828,0.1055,0.8287,-0.0616
0.509990,-0.7695,0.2506,-1.0828,0.0798,0.8507,-0.0407
0.510540,-0.6482,0.1968,-0.9685,0.0798,0.8507,-0.0407
0.511236,-0.6482,0.1968,-0.9685,0.0798,0.8507,-0.0407
0.511774,-0.6482,0.1968,-0.9685,0.0542,0.8678,-0.0261
0.512442,-0.4809,0.0899,-0.8582,0.0542,0.8678,-0.0261
0.513085,-0.4809,0.0899,-0.8582,0.0542,0.8678,-0.0261
0.513820,-0.4809,0.0899,-0.8582,0.0297,0.8777,-0.0151
0.514448,-0.3728,0.0525,-0.7751,0.0297,0.8777,-0.0151
0.515134,-0.3728,0.0525,-0.7751,0.0297,0.8777,-0.0151
0.515564,-0.3728,0.0525,-0.7751,0.0077,0.8800,-0.0078
0.516197,-0.2421,-0.0459,-0.6284,0.0077,0.8800,-0.0078
0.516572,-0.2421,-0.0459,-0.6284,0.0077,0.8800,-0.0078
0.516802,-0.2421,-0.0459,-0.6284,-0.0131,0.8777,-0.0066
0.517018,-0.1269,-0.1416,-0.5479,-0.0131,0.8777,-0.0066
0.529424,-0.1269,-0.1416,-0.5479,-0.0131,0.8777,-0.0066
0.530020,-0.1269,-0.1416,-0.5479,-0.0338,0.8678,-0.0089
0.530481,-0.0352,-0.2195,-0.4345,-0.0338,0.8678,-0.0089
0.531253,-0.0352,-0.2195,-0.4345,-0.0338,0.8678,-0.0089
0.531689,-0.0352,-0.2195,-0.4345,-0.0521,0.8532,-0.0139
0.532279,0.0438,-0.3271,-0.3168,-0.0521,0.8532,-0.0139
0.532902,0.0438,-0.3271,-0.3168,-0.0521,0.8532,-0.0139
0.533328,0.0438,-0.3271,-0.3168,-0.0692,0.8324,-0.0212
0.533773,0.1122,-0.3998,-0.2253,-0.0692,0.8324,-0.0212
0.534287,0.1122,-0.3998,-0.2253,-0.0692,0.8324,-0.0212
0.534647,0.1122,-0.3998,-0.2253,-0.0826,0.8055,-0.0322
0.535322,0.1753,-0.4893,-0.1403,-0.0826,0.8055,-0.0322
0.536065,0.1753,-0.4893,-0.1403,-0.0826,0.8055,-0.0322
0.536493,0.1753,-0.4893,-0.1403,-0.0936,0.7787,-0.0469
0.537081,0.2752,-0.5508,-0.0478,-0.0936,0.7787,-0.0469
0.537870,0.2752,-0.5508,-0.0478,-0.0936,0.7787,-0.0469
0.538225,0.2752,-0.5508,-0.0478,-0.1034,0.7494,-0.0664
0.538595,0.3568,-0.6279,0.0319,-0.1034,0.7494,-0.0664
0.538920,0.3568,-0.6279,0.0319,-0.1034,0.7494,-0.0664
0.539137,0.3568,-0.6279,0.0319,-0.1096,0.7187,-0.0872
0.539458,0.3863,-0.6291,0.0803,-0.1096,0.7187,-0.0872
0.539831,0.3863,-0.6291,0.0803,-0.1096,0.7187,-0.0872
0.540053,0.3863,-0.6291,0.0803,-0.1144,0.6846,-0.1092
0.540360,0.4915,-0.6590,0.1451,-0.1144,0.6846,-0.1092
0.540693,0.4915,-0.6590,0.1451,-0.1144,0.6846,-0.1092
0.540922,0.4915,-0.6590,0.1451,-0.1132,0.6504,-0.1312
0.541217,0.5303,-0.6771,0.1822,-0.1132,0.6504,-0.1312
0.541611,0.5303,-0.6771,0.1822,-0.1132,0.6504,-0.1312
0.541847,0.5303,-0.6771,0.1822,-0.1096,0.6161,-0.1569
0.542153,0.5715,-0.6881,0.2118,-0.1096,0.6161,-0.1569
0.542457,0.5715,-0.6881,0.2118,-0.1096,0.6161,-0.1569
0.542686,0.5715,-0.6881,0.2118,-0.1034,0.5831,-0.1812
0.542982,0.6375,-0.7234,0.1797,-0.1034,0.5831,-0.1812
0.550239,0.6375,-0.7234,0.1797,-0.1034,0.5831,-0.1812
0.550806,0.6375,-0.7234,0.1797,-0.0974,0.5514,-0.2082
0.551458,0.6669,-0.7488,0.1290,-0.0974,0.5514,-0.2082
0.552049,0.6669,-0.7488,0.1290,-0.0974,0.5514,-0.2082
0.552451,0.6669,-0.7488,0.1290,-0.0901,0.5233,-0.2387
0.552971,0.7113,-0.7669,0.0784,-0.0901,0.5233,-0.2387
0.553563,0.7113,-0.7669,0.0784,-0.0901,0.5233,-0.2387
0.553952,0.7113,-0.7669,0.0784,-0.0839,0.4976,-0.2717
0.554381,0.6962,-0.7411,-0.0106,-0.0839,0.4976,-0.2717
0.554881,0.6962,-0.7411,-0.0106,-0.0839,0.4976,-0.2717
0.555240,0.6962,-0.7411,-0.0106,-0.0778,0.4744,-0.3035
0.555889,0.6602,-0.6896,-0.0466,-0.0778,0.4744,-0.3035
0.556625,0.6602,-0.6896,-0.0466,-0.0778,0.4744,-0.3035
0.557099,0.6602,-0.6896,-0.0466,-0.0704,0.4476,-0.3340
0.557413,0.5615,-0.6616,-0.1153,-0.0704,0.4476,-0.3340
0.557750,0.5615,-0.6616,-0.1153,-0.0704,0.4476,-0.3340
0.557974,0.5615,-0.6616,-0.1153,-0.0631,0.4243,-0.3620
0.558293,0.4583,-0.5654,-0.1917,-0.0631,0.4243,-0.3620
0.559997,0.4583,-0.5654,-0.1917,-0.0631,0.4243,-0.3620
0.560269,0.4583,-0.5654,-0.1917,-0.0571,0.4036,-0.3828
0.560554,0.2725,-0.5274,-0.2509,-0.0571,0.4036,-0.3828
0.563166,0.2725,-0.5274,-0.2509,-0.0571,0.4036,-0.3828
0.563831,0.2725,-0.5274,-0.2509,-0.0521,0.3877,-0.3975
0.564353,0.0585,-0.4391,-0.3549,-0.0521,0.3877,-0.3975
0.564769,0.0585,-0.4391,-0.3549,-0.0521,0.3877,-0.3975
0.565012,0.0585,-0.4391,-0.3549,-0.0509,0.3816,-0.4048
0.565385,-0.1286,-0.3204,-0.4666,-0.0509,0.3816,-0.4048
0.566526,-0.1286,-0.3204,-0.4666,-0.0509,0.3816,-0.4048
0.566793,-0.1286,-0.3204,-0.4666,-0.0484,0.3840,-0.4073
0.567145,-0.2883,-0.1951,-0.5458,-0.0484,0.3840,-0.4073
0.568866,-0.2883,-0.1951,-0.5458,-0.0484,0.3840,-0.4073
0.569242,-0.2883,-0.1951,-0.5458,-0.0484,0.3938,-0.4036
0.569891,-0.4639,-0.0864,-0.6128,-0.0484,0.3938,-0.4036
0.571460,-0.4639,-0.0864,-0.6128,-0.0484,0.3938,-0.4036
0.571818,-0.4639,-0.0864,-0.6128,-0.0521,0.4097,-0.3913
0.572167,-0.6177,-0.0009,-0.7254,-0.0521,0.4097,-0.3913
0.574246,-0.6177,-0.0009,-0.7254,-0.0521,0.4097,-0.3913
0.574729,-0.6177,-0.0009,-0.7254,-0.0571,0.4329,-0.3755
0.575366,-0.7655,0.1260,-0.7878,-0.0571,0.4329,-0.3755
0.576076,-0.7655,0.1260,-0.7878,-0.0571,0.4329,-0.3755
0.576326,-0.7655,0.1260,-0.7878,-0.0656,0.4623,-0.3535
0.576700,-0.8784,0.2017,-0.8737,-0.0656,0.4623,-0.3535
0.579629,-0.8784,0.2017,-0.8737,-0.0656,0.4623,-0.3535
0.579989,-0.8784,0.2017,-0.8737,-0.0754,0.4976,-0.3278
0.580351,-0.9901,0.2703,-0.9324,-0.0754,0.4976,-0.3278
0.580778,-0.9901,0.2703,-0.9324,-0.0754,0.4976,-0.3278
0.581030,-0.9901,0.2703,-0.9324,-0.0912,0.5368,-0.2998
0.581462,-1.0727,0.3248,-0.9699,-0.0912,0.5368,-0.2998
0.583338,-1.0727,0.3248,-0.9699,-0.0912,0.5368,-0.2998
0.583796,-1.0727,0.3248,-0.9699,-0.1059,0.5783,-0.2668
0.584545,-1.0915,0.3913,-1.0130,-0.1059,0.5783,-0.2668
0.585182,-1.0915,0.3913,-1.0130,-0.1059,0.5783,-0.2668
0.585515,-1.0915,0.3913,-1.0130,-0.1242,0.6247,-0.2325
0.585876,-1.1453,0.3929,-1.0139,-0.1242,0.6247,-0.2325
0.588140,-1.1453,0.3929,-1.0139,-0.1242,0.6247,-0.2325
0.588731,-1.1453,0.3929,-1.0139,-0.1437,0.6724,-0.1984
0.589462,-1.1557,0.3708,-0.9667,-0.1437,0.6724,-0.1984
0.590195,-1.1557,0.3708,-0.9667,-0.1437,0.6724,-0.1984
0.590428,-1.1557,0.3708,-0.9667,-0.1646,0.7224,-0.1629
0.590742,-1.1131,0.3917,-0.9071,-0.1646,0.7224,-0.1629
0.592765,-1.1131,0.3917,-0.9071,-0.1646,0.7224,-0.1629
0.593346,-1.1131,0.3917,-0.9071,-0.1865,0.7677,-0.1312
0.594012,-1.0416,0.3412,-0.8113,-0.1865,0.7677,-0.1312
0.597214,-1.0416,0.3412,-0.8113,-0.1865,0.7677,-0.1312
0.597951,-1.0416,0.3412,-0.8113,-0.2049,0.8080,-0.1019
0.598457,-0.9551,0.3029,-0.6983,-0.2049,0.8080,-0.1019
0.600099,-0.9551,0.3029,-0.6983,-0.2281,0.8434,-0.0737
0.600526,-0.7897,0.2577,-0.5423,-0.2281,0.8434,-0.0737
0.600929,-0.7897,0.2577,-0.5423,-0.2281,0.8434,-0.0737
0.601226,-0.6487,0.1906,-0.3653,-0.2281,0.8434,-0.0737
0.601701,-0.6487,0.1906,-0.3653,-0.2281,0.8434,-0.0737
0.601968,-0.6487,0.1906,-0.3653,-0.2452,0.8715,-0.0517
0.602397,-0.6487,0.1906,-0.3653,-0.2452,0.8715,-0.0517
0.602645,-0.6487,0.1906,-0.3653,-0.2647,0.8935,-0.0346
0.603031,-0.5300,0.1651,-0.2016,-0.2647,0.8935,-0.0346
0.604735,-0.5300,0.1651,-0.2016,-0.2647,0.8935,-0.0346
0.605083,-0.5300,0.1651,-0.2016,-0.2819,0.9069,-0.0236
0.605618,-0.3982,0.0630,-0.0134,-0.2819,0.9069,-0.0236
0.609962,-0.3982,0.0630,-0.0134,-0.2819,0.9069,-0.0236
0.610384,-0.3982,0.0630,-0.0134,-0.2927,0.9179,-0.0176
0.610934,-0.2526,0.0059,0.1941,-0.2927,0.9179,-0.0176
0.611482,-0.2526,0.0059,0.1941,-0.2927,0.9179,-0.0176
0.611810,-0.2526,0.0059,0.1941,-0.3074,0.9167,-0.0151
0.612274,-0.1361,-0.0325,0.3282,-0.3074,0.9167,-0.0151
0.613135,-0.1361,-0.0325,0.3282,-0.3074,0.9167,-0.0151
0.613537,-0.1361,-0.0325,0.3282,-0.3185,0.9094,-0.0164
0.614022,-0.0375,-0.1134,0.4920,-0.3185,0.9094,-0.0164
0.614511,-0.0375,-0.1134,0.4920,-0.3185,0.9094,-0.0164
0.614885,-0.0375,-0.1134,0.4920,-0.3295,0.8972,-0.0224
0.615340,0.0605,-0.1955,0.5974,-0.3295,0.8972,-0.0224
0.615856,0.0605,-0.1955,0.5974,-0.3295,0.8972,-0.0224
0.616187,0.0605,-0.1955,0.5974,-0.3344,0.8812,-0.0334
0.616611,0.0960,-0.2385,0.7099,-0.3344,0.8812,-0.0334
0.621811,0.0960,-0.2385,0.7099,-0.3344,0.8812,-0.0334
0.622365,0.0960,-0.2385,0.7099,-0.3404,0.8605,-0.0456
0.622955,0.1689,-0.3269,0.8009,-0.3404,0.8605,-0.0456
0.623386,0.1689,-0.3269,0.8009,-0.3404,0.8605,-0.0456
0.623641,0.1689,-0.3269,0.8009,-0.3442,0.8349,-0.0604
0.624030,0.2191,-0.3800,0.9048,-0.3442,0.8349,-0.0604
0.624390,0.2191,-0.3800,0.9048,-0.3442,0.8349,-0.0604
0.624620,0.2191,-0.3800,0.9048,-0.3490,0.8067,-0.0799
0.625021,0.2866,-0.4389,0.9714,-0.3490,0.8067,-0.0799
0.625401,0.2866,-0.4389,0.9714,-0.3490,0.8067,-0.0799
0.625629,0.2866,-0.4389,0.9714,-0.3514,0.7774,-0.0982
0.625958,0.3594,-0.4955,1.0569,-0.3514,0.7774,-0.0982
0.631630,0.3594,-0.4955,1.0569,-0.3514,0.7774,-0.0982
0.632570,0.3594,-0.4955,1.0569,-0.3490,0.7444,-0.1189
0.633556,0.3794,-0.5449,1.1082,-0.3490,0.7444,-0.1189
0.634660,0.3794,-0.5449,1.1082,-0.3490,0.7444,-0.1189
0.635661,0.3794,-0.5449,1.1082,-0.3465,0.7114,-0.1422
0.636629,0.4179,-0.5702,1.1522,-0.3465,0.7114,-0.1422
0.637414,0.4179,-0.5702,1.1522,-0.3465,0.7114,-0.1422
0.637849,0.4179,-0.5702,1.1522,-0.3429,0.6784,-0.1642
0.638413,0.4507,-0.6043,1.1752,-0.3429,0.6784,-0.1642
0.639070,0.4507,-0.6043,1.1752,-0.3429,0.6784,-0.1642
0.639465,0.4507,-0.6043,1.1752,-0.3355,0.6467,-0.1874
0.639995,0.4778,-0.5895,1.1880,-0.3355,0.6467,-0.1874
0.640606,0.4778,-0.5895,1.1880,-0.3355,0.6467,-0.1874
0.640994,0.4778,-0.5895,1.1880,-0.3282,0.6137,-0.2130
0.641598,0.4424,-0.6167,1.1666,-0.3282,0.6137,-0.2130
0.642205,0.4424,-0.6167,1.1666,-0.3282,0.6137,-0.2130
0.642606,0.4424,-0.6167,1.1666,-0.3172,0.5796,-0.2362
0.643157,0.4743,-0.5630,1.1632,-0.3172,0.5796,-0.2362
0.643792,0.4743,-0.5630,1.1632,-0.3172,0.5796,-0.2362
0.644258,0.4743,-0.5630,1.1632,-0.3062,0.5429,-0.2595
0.644844,0.4086,-0.5236,1.1436,-0.3062,0.5429,-0.2595
0.645619,0.4086,-0.5236,1.1436,-0.3062,0.5429,-0.2595
0.646069,0.4086,-0.5236,1.1436,-0.2927,0.5013,-0.2815
0.646544,0.3853,-0.5112,1.0921,-0.2927,0.5013,-0.2815
0.647136,0.3853,-0.5112,1.0921,-0.2927,0.5013,-0.2815
0.647521,0.3853,-0.5112,1.0921,-0.2794,0.4610,-0.3022
0.648096,0.3023,-0.4502,1.0373,-0.2794,0.4610,-0.3022
0.659804,0.3023,-0.4502,1.0373,-0.2794,0.4610,-0.3022
0.660761,0.3023,-0.4502,1.0373,-0.2659,0.4206,-0.3205
0.661691,0.1968,-0.4434,0.9705,-0.2659,0.4206,-0.3205
0.662255,0.1968,-0.4434,0.9705,-0.2659,0.4206,-0.3205
0.662610,0.1968,-0.4434,0.9705,-0.2537,0.3816,-0.3365
0.663086,0.0789,-0.3709,0.9008,-0.2537,0.3816,-0.3365
0.663597,0.0789,-0.3709,0.9008,-0.2537,0.3816,-0.3365
0.663947,0.0789,-0.3709,0.9008,-0.2402,0.3425,-0.3475
0.664386,-0.0511,-0.3148,0.7909,-0.2402,0.3425,-0.3475
0.664853,-0.0511,-0.3148,0.7909,-0.2402,0.3425,-0.3475
0.665187,-0.0511,-0.3148,0.7909,-0.2281,0.3058,-0.3535
0.665574,-0.1527,-0.2461,0.6882,-0.2281,0.3058,-0.3535
0.666037,-0.1527,-0.2461,0.6882,-0.2281,0.3058,-0.3535
0.666366,-0.1527,-0.2461,0.6882,-0.2194,0.2728,-0.3560
0.666801,-0.2564,-0.1897,0.5874,-0.2194,0.2728,-0.3560
0.667177,-0.2564,-0.1897,0.5874,-0.2194,0.2728,-0.3560
0.667497,-0.2564,-0.1897,0.5874,-0.2097,0.2447,-0.3548
0.667947,-0.3731,-0.1268,0.4589,-0.2097,0.2447,-0.3548
0.668438,-0.3731,-0.1268,0.4589,-0.2097,0.2447,-0.3548
0.668757,-0.3731,-0.1268,0.4589,-0.2036,0.2227,-0.3498
0.669179,-0.4605,-0.0764,0.3185,-0.2036,0.2227,-0.3498
0.669671,-0.4605,-0.0764,0.3185,-0.2036,0.2227,-0.3498
0.670027,-0.4605,-0.0764,0.3185,-0.1987,0.2069,-0.3413
0.670454,-0.5156,-0.0113,0.2143,-0.1987,0.2069,-0.3413
0.670896,-0.5156,-0.0113,0.2143,-0.1987,0.2069,-0.3413
0.671208,-0.5156,-0.0113,0.2143,-0.1939,0.1959,-0.3290
0.671581,-0.5922,0.0331,0.1005,-0.1939,0.1959,-0.3290
0.672074,-0.5922,0.0331,0.1005,-0.1939,0.1959,-0.3290
0.672386,-0.5922,0.0331,0.1005,-0.1889,0.1922,-0.3169
0.672730,-0.5921,0.0987,0.0080,-0.1889,0.1922,-0.3169
0.673126,-0.5921,0.0987,0.0080,-0.1889,0.1922,-0.3169
0.673470,-0.5921,0.0987,0.0080,-0.1841,0.1970,-0.2998
0.673740,-0.5521,0.1157,-0.0901,-0.1841,0.1970,-0.2998
0.683071,-0.5521,0.1157,-0.0901,-0.1841,0.1970,-0.2998
0.683772,-0.5521,0.1157,-0.0901,-0.1792,0.2093,-0.2827
0.684291,-0.5514,0.1457,-0.1624,-0.1792,0.2093,-0.2827
0.684814,-0.5514,0.1457,-0.1624,-0.1792,0.2093,-0.2827
0.685076,-0.5514,0.1457,-0.1624,-0.1767,0.2277,-0.2644
0.685406,-0.4953,0.1559,-0.2213,-0.1767,0.2277,-0.2644
0.685746,-0.4953,0.1559,-0.2213,-0.1767,0.2277,-0.2644
0.685986,-0.4953,0.1559,-0.2213,-0.1706,0.2520,-0.2447
0.686290,-0.4315,0.1219,-0.3051,-0.1706,0.2520,-0.2447
0.686648,-0.4315,0.1219,-0.3051,-0.1706,0.2520,-0.2447
0.686881,-0.4315,0.1219,-0.3051,-0.1634,0.2838,-0.2277
0.687178,-0.3183,0.1476,-0.3340,-0.1634,0.2838,-0.2277
0.687498,-0.3183,0.1476,-0.3340,-0.1634,0.2838,-0.2277
0.687714,-0.3183,0.1476,-0.3340,-0.1559,0.3156,-0.2106
0.688009,-0.2105,0.1321,-0.3489,-0.1559,0.3156,-0.2106
0.688356,-0.2105,0.1321,-0.3489,-0.1559,0.3156,-0.2106
0.688585,-0.2105,0.1321,-0.3489,-0.1486,0.3523,-0.1984
0.688874,-0.0789,0.0728,-0.3521,-0.1486,0.3523,-0.1984
0.689209,-0.0789,0.0728,-0.3521,-0.1486,0.3523,-0.1984
0.689609,-0.0789,0.0728,-0.3521,-0.1389,0.3889,-0.1862
0.689915,0.0478,0.0405,-0.3810,-0.1389,0.3889,-0.1862
0.691996,0.0478,0.0405,-0.3810,-0.1389,0.3889,-0.1862
0.692246,0.0478,0.0405,-0.3810,-0.1266,0.4280,-0.1777
0.692552,0.1947,-0.0319,-0.3740,-0.1266,0.4280,-0.1777
0.698508,0.1947,-0.0319,-0.3740,-0.1266,0.4280,-0.1777
0.699258,0.1947,-0.0319,-0.3740,-0.1108,0.4671,-0.1764
0.700046,0.3508,-0.1311,-0.3819,-0.1108,0.4671,-0.1764
0.700906,0.3508,-0.1311,-0.3819,-0.1108,0.4671,-0.1764
0.701533,0.3508,-0.1311,-0.3819,-0.0949,0.5050,-0.1777
0.702090,0.4993,-0.1946,-0.3695,-0.0949,0.5050,-0.1777
0.702855,0.4993,-0.1946,-0.3695,-0.0949,0.5050,-0.1777
0.703380,0.4993,-0.1946,-0.3695,-0.0754,0.5441,-0.1812
0.703959,0.6423,-0.2613,-0.3910,-0.0754,0.5441,-0.1812
0.704672,0.6423,-0.2613,-0.3910,-0.0754,0.5441,-0.1812
0.705130,0.6423,-0.2613,-0.3910,-0.0558,0.5844,-0.1910
0.705811,0.7361,-0.3251,-0.4021,-0.0558,0.5844,-0.1910
0.706449,0.7361,-0.3251,-0.4021,-0.0558,0.5844,-0.1910
0.706864,0.7361,-0.3251,-0.4021,-0.0314,0.6234,-0.1997
0.707402,0.8897,-0.4294,-0.4540,-0.0314,0.6234,-0.1997
0.708021,0.8897,-0.4294,-0.4540,-0.0314,0.6234,-0.1997
0.708418,0.8897,-0.4294,-0.4540,-0.0069,0.6662,-0.2155
0.708936,1.0130,-0.4750,-0.4705,-0.0069,0.6662,-0.2155
0.709611,1.0130,-0.4750,-0.4705,-0.0069,0.6662,-0.2155
0.710011,1.0130,-0.4750,-0.4705,0.0187,0.7102,-0.2338
0.710568,1.1085,-0.5429,-0.5456,0.0187,0.7102,-0.2338
0.711133,1.1085,-0.5429,-0.5456,0.0187,0.7102,-0.2338
0.711574,1.1085,-0.5429,-0.5456,0.0480,0.7554,-0.2545
0.712141,1.1991,-0.6253,-0.5981,0.0480,0.7554,-0.2545
0.720845,1.1991,-0.6253,-0.5981,0.0480,0.7554,-0.2545
0.721475,1.1991,-0.6253,-0.5981,0.0762,0.8007,-0.2790
0.721937,1.3069,-0.6263,-0.6552,0.0762,0.8007,-0.2790
0.722602,1.3069,-0.6263,-0.6552,0.0762,0.8007,-0.2790
0.722996,1.3069,-0.6263,-0.6552,0.1067,0.8482,-0.3035
0.723511,1.3797,-0.6787,-0.7118,0.1067,0.8482,-0.3035
0.724125,1.3797,-0.6787,-0.7118,0.1067,0.8482,-0.3035
0.724593,1.3797,-0.6787,-0.7118,0.1372,0.8972,-0.3303
0.725117,1.4469,-0.7237,-0.7828,0.1372,0.8972,-0.3303
0.725525,1.4469,-0.7237,-0.7828,0.1372,0.8972,-0.3303
0.725756,1.4469,-0.7237,-0.7828,0.1678,0.9448,-0.3596
0.726073,1.4984,-0.7601,-0.8501,0.1678,0.9448,-0.3596
0.726414,1.4984,-0.7601,-0.8501,0.1678,0.9448,-0.3596
0.726662,1.4984,-0.7601,-0.8501,0.1995,0.9925,-0.3877
0.726981,1.5721,-0.7779,-0.9201,0.1995,0.9925,-0.3877
0.727335,1.5721,-0.7779,-0.9201,0.1995,0.9925,-0.3877
0.727546,1.5721,-0.7779,-0.9201,0.2325,1.0401,-0.4183
0.727886,1.5862,-0.7606,-1.0293,0.2325,1.0401,-0.4183
0.728211,1.5862,-0.7606,-1.0293,0.2325,1.0401,-0.4183
0.728421,1.5862,-0.7606,-1.0293,0.2630,1.0902,-0.4463
0.728762,1.6105,-0.7146,-1.0810,0.2630,1.0902,-0.4463
0.729540,1.6105,-0.7146,-1.0810,0.2630,1.0902,-0.4463
0.729793,1.6105,-0.7146,-1.0810,0.2925,1.1403,-0.4781
0.730106,1.5831,-0.7381,-1.1969,0.2925,1.1403,-0.4781
0.735960,1.5831,-0.7381,-1.1969,0.2925,1.1403,-0.4781
0.736373,1.5831,-0.7381,-1.1969,0.3168,1.1903,-0.5086
0.736800,1.5913,-0.7080,-1.3143,0.3168,1.1903,-0.5086
0.737188,1.5913,-0.7080,-1.3143,0.3168,1.1903,-0.5086
0.737486,1.5913,-0.7080,-1.3143,0.3425,1.2416,-0.5368
0.737847,1.5408,-0.7011,-1.4060,0.3425,1.2416,-0.5368
0.738217,1.5408,-0.7011,-1.4060,0.3425,1.2416,-0.5368
0.738438,1.5408,-0.7011,-1.4060,0.3608,1.2906,-0.5613
0.738783,1.4816,-0.6596,-1.5371,0.3608,1.2906,-0.5613
0.739119,1.4816,-0.6596,-1.5371,0.3608,1.2906,-0.5613
0.739361,1.4816,-0.6596,-1.5371,0.3755,1.3394,-0.5881
0.739656,1.4126,-0.5842,-1.6976,0.3755,1.3394,-0.5881
0.741940,1.4126,-0.5842,-1.6976,0.3755,1.3394,-0.5881
0.742429,1.4126,-0.5842,-1.6976,0.3840,1.3871,-0.6138
0.743089,1.3320,-0.5468,-1.8266,0.3840,1.3871,-0.6138
0.743813,1.3320,-0.5468,-1.8266,0.3840,1.3871,-0.6138
0.744248,1.3320,-0.5468,-1.8266,0.3877,1.4347,-0.6333
0.744553,1.2386,-0.4694,-1.9700,0.3877,1.4347,-0.6333
0.747571,1.2386,-0.4694,-1.9700,0.3877,1.4347,-0.6333
0.748207,1.2386,-0.4694,-1.9700,0.3840,1.4824,-0.6541
0.748910,1.1203,-0.4386,-2.0818,0.3840,1.4824,-0.6541
0.749698,1.1203,-0.4386,-2.0818,0.3840,1.4824,-0.6541
0.750111,1.1203,-0.4386,-2.0818,0.3730,1.5251,-0.6711
0.750463,1.0201,-0.4036,-2.1634,0.3730,1.5251,-0.6711
0.750911,1.0201,-0.4036,-2.1634,0.3730,1.5251,-0.6711
0.751146,1.0201,-0.4036,-2.1634,0.3571,1.5630,-0.6883
0.751516,0.9269,-0.3749,-2.2335,0.3571,1.5630,-0.6883
0.754052,0.9269,-0.3749,-2.2335,0.3571,1.5630,-0.6883
0.754585,0.9269,-0.3749,-2.2335,0.3352,1.5984,-0.7029
0.755303,0.7824,-0.3187,-2.3123,0.3352,1.5984,-0.7029
0.755751,0.7824,-0.3187,-2.3123,0.3352,1.5984,-0.7029
0.756032,0.7824,-0.3187,-2.3123,0.3108,1.6302,-0.7139
0.756486,0.6539,-0.2817,-2.3657,0.3108,1.6302,-0.7139
0.758186,0.6539,-0.2817,-2.3657,0.3108,1.6302,-0.7139
0.758730,0.6539,-0.2817,-2.3657,0.2790,1.6632,-0.7237
0.759289,0.5160,-0.2051,-2.3958,0.2790,1.6632,-0.7237
0.762449,0.5160,-0.2051,-2.3958,0.2790,1.6632,-0.7237
0.763090,0.5160,-0.2051,-2.3958,0.2435,1.6950,-0.7298
0.763884,0.3430,-0.1256,-2.4066,0.2435,1.6950,-0.7298
0.766523,0.3430,-0.1256,-2.4066,0.2435,1.6950,-0.7298
0.766913,0.3430,-0.1256,-2.4066,0.2045,1.7267,-0.7334
0.767557,0.2212,-0.0550,-2.3685,0.2045,1.7267,-0.7334
0.768133,-0.0019,0.0020,-2.3064,0.2045,1.7267,-0.7334
0.768634,-0.0019,0.0020,-2.3064,0.2045,1.7267,-0.7334
0.768947,-0.0019,0.0020,-2.3064,0.1617,1.7535,-0.7322
0.769591,-0.0019,0.0020,-2.3064,0.1617,1.7535,-0.7322
0.770025,-0.0019,0.0020,-2.3064,0.1189,1.7780,-0.7261
0.770710,-0.1797,0.0511,-2.2355,0.1189,1.7780,-0.7261
0.771315,-0.1797,0.0511,-2.2355,0.1189,1.7780,-0.7261
0.771805,-0.1797,0.0511,-2.2355,0.0749,1.7975,-0.7164
0.772297,-0.3072,0.0831,-2.1301,0.0749,1.7975,-0.7164
0.772815,-0.3072,0.0831,-2.1301,0.0749,1.7975,-0.7164
0.773213,-0.3072,0.0831,-2.1301,0.0272,1.8098,-0.7054
0.773805,-0.3671,0.0959,-2.0087,0.0272,1.8098,-0.7054
0.776703,-0.3671,0.0959,-2.0087,0.0272,1.8098,-0.7054
0.777145,-0.3671,0.0959,-2.0087,-0.0191,1.8146,-0.6944
0.777888,-0.3742,0.1137,-1.8534,-0.0191,1.8146,-0.6944
0.778572,-0.3742,0.1137,-1.8534,-0.0191,1.8146,-0.6944
0.778983,-0.3742,0.1137,-1.8534,-0.0668,1.8183,-0.6821
0.779510,-0.4049,0.0934,-1.7008,-0.0668,1.8183,-0.6821
0.780119,-0.4049,0.0934,-1.7008,-0.0668,1.8183,-0.6821
0.780518,-0.4049,0.0934,-1.7008,-0.1108,1.8135,-0.6748
0.781038,-0.4526,0.0939,-1.5232,-0.1108,1.8135,-0.6748
0.781710,-0.4526,0.0939,-1.5232,-0.1108,1.8135,-0.6748
0.782115,-0.4526,0.0939,-1.5232,-0.1547,1.8061,-0.6651
0.782658,-0.4523,0.0715,-1.3225,-0.1547,1.8061,-0.6651
0.785184,-0.4523,0.0715,-1.3225,-0.1547,1.8061,-0.6651
0.785832,-0.4523,0.0715,-1.3225,-0.1914,1.7963,-0.6553
0.786460,-0.4502,0.0089,-1.1479,-0.1914,1.7963,-0.6553
0.787002,-0.4502,0.0089,-1.1479,-0.1914,1.7963,-0.6553
0.787426,-0.4502,0.0089,-1.1479,-0.2269,1.7817,-0.6504
0.788012,-0.4649,-0.0220,-0.9682,-0.2269,1.7817,-0.6504
0.788614,-0.4649,-0.0220,-0.9682,-0.2269,1.7817,-0.6504
0.789038,-0.4649,-0.0220,-0.9682,-0.2586,1.7670,-0.6479
0.789665,-0.4619,-0.0917,-0.8226,-0.2586,1.7670,-0.6479
0.792582,-0.4619,-0.0917,-0.8226,-0.2586,1.7670,-0.6479
0.792881,-0.4619,-0.0917,-0.8226,-0.2892,1.7500,-0.6431
0.793296,-0.4292,-0.1224,-0.6961,-0.2892,1.7500,-0.6431
0.795479,-0.4292,-0.1224,-0.6961,-0.2892,1.7500,-0.6431
0.796220,-0.4292,-0.1224,-0.6961,-0.3147,1.7365,-0.6418
0.797069,-0.4274,-0.2000,-0.5495,-0.3147,1.7365,-0.6418
0.798175,-0.4274,-0.2000,-0.5495,-0.3147,1.7365,-0.6418
0.798483,-0.4274,-0.2000,-0.5495,-0.3392,1.7230,-0.6431
0.798825,-0.2870,-0.2528,-0.5196,-0.3392,1.7230,-0.6431
0.799159,-0.2870,-0.2528,-0.5196,-0.3392,1.7230,-0.6431
0.799381,-0.2870,-0.2528,-0.5196,-0.3625,1.7157,-0.6504
0.799691,-0.1874,-0.2997,-0.4610,-0.3625,1.7157,-0.6504
0.801654,-0.1874,-0.2997,-0.4610,-0.3625,1.7157,-0.6504
0.801910,-0.1874,-0.2997,-0.4610,-0.3844,1.7035,-0.6639
0.802332,-0.0777,-0.3656,-0.3878,-0.3844,1.7035,-0.6639
0.803385,-0.0777,-0.3656,-0.3878,-0.3844,1.7035,-0.6639
0.803707,-0.0777,-0.3656,-0.3878,-0.4027,1.6900,-0.6784
0.804126,-0.0315,-0.4273,-0.3279,-0.4027,1.6900,-0.6784
0.805998,-0.0315,-0.4273,-0.3279,-0.4027,1.6900,-0.6784
0.806516,-0.0315,-0.4273,-0.3279,-0.4175,1.6742,-0.6931
0.807244,0.0955,-0.5331,-0.2726,-0.4175,1.6742,-0.6931
0.807870,0.0955,-0.5331,-0.2726,-0.4175,1.6742,-0.6931
0.808383,0.0955,-0.5331,-0.2726,-0.4284,1.6607,-0.7091
0.808793,0.1659,-0.5814,-0.2464,-0.4284,1.6607,-0.7091
0.813475,0.1659,-0.5814,-0.2464,-0.4284,1.6607,-0.7091
0.814198,0.1659,-0.5814,-0.2464,-0.4370,1.6497,-0.7237
0.814920,0.2607,-0.6767,-0.2186,-0.4370,1.6497,-0.7237
0.815537,0.2607,-0.6767,-0.2186,-0.4370,1.6497,-0.7237
0.815953,0.2607,-0.6767,-0.2186,-0.4430,1.6412,-0.7408
0.816552,0.3181,-0.7786,-0.2118,-0.4430,1.6412,-0.7408
0.817243,0.3181,-0.7786,-0.2118,-0.4430,1.6412,-0.7408
0.817729,0.3181,-0.7786,-0.2118,-0.4443,1.6363,-0.7579
0.818295,0.3951,-0.8014,-0.2579,-0.4443,1.6363,-0.7579
0.818834,0.3951,-0.8014,-0.2579,-0.4443,1.6363,-0.7579
0.819318,0.3951,-0.8014,-0.2579,-0.4430,1.6375,-0.7762
0.819922,0.4452,-0.8823,-0.3060,-0.4430,1.6375,-0.7762
0.820596,0.4452,-0.8823,-0.3060,-0.4430,1.6375,-0.7762
0.821123,0.4452,-0.8823,-0.3060,-0.4407,1.6435,-0.7946
0.821885,0.5084,-0.9000,-0.3585,-0.4407,1.6435,-0.7946
0.822454,0.5084,-0.9000,-0.3585,-0.4407,1.6435,-0.7946
0.822780,0.5084,-0.9000,-0.3585,-0.4333,1.6545,-0.8117
0.823241,0.5878,-0.9590,-0.4090,-0.4333,1.6545,-0.8117
0.826368,0.5878,-0.9590,-0.4090,-0.4333,1.6545,-0.8117
0.826759,0.5878,-0.9590,-0.4090,-0.4260,1.6730,-0.8337
0.827330,0.6557,-1.0350,-0.5368,-0.4260,1.6730,-0.8337
0.827825,0.6557,-1.0350,-0.5368,-0.4260,1.6730,-0.8337
0.828188,0.6557,-1.0350,-0.5368,-0.4199,1.7010,-0.8557
0.828689,0.7173,-1.1203,-0.7249,-0.4199,1.7010,-0.8557
0.829211,0.7173,-1.1203,-0.7249,-0.4199,1.7010,-0.8557
0.829599,0.7173,-1.1203,-0.7249,-0.4113,1.7230,-0.8825
0.830036,0.7075,-1.1654,-0.8325,-0.4113,1.7230,-0.8825
0.832374,0.7075,-1.1654,-0.8325,-0.4113,1.7230,-0.8825
0.833019,0.7075,-1.1654,-0.8325,-0.4077,1.7413,-0.9094
0.833847,0.6809,-1.0573,-0.7797,-0.4077,1.7413,-0.9094
0.834443,0.6809,-1.0573,-0.7797,-0.4077,1.7413,-0.9094
0.834777,0.6809,-1.0573,-0.7797,-0.4027,1.7463,-0.9375
0.835226,0.6864,-0.9531,-0.7036,-0.4027,1.7463,-0.9375
0.838698,0.6864,-0.9531,-0.7036,-0.4027,1.7463,-0.9375
0.838954,0.6864,-0.9531,-0.7036,-0.4027,1.7413,-0.9644
0.839278,0.6358,-0.7907,-0.6196,-0.4027,1.7413,-0.9644
0.839653,0.6358,-0.7907,-0.6196,-0.4027,1.7413,-0.9644
0.839885,0.6358,-0.7907,-0.6196,-0.4040,1.7255,-0.9900
0.840250,0.6090,-0.6561,-0.6543,-0.4040,1.7255,-0.9900
0.840605,0.6090,-0.6561,-0.6543,-0.4040,1.7255,-0.9900
0.840823,0.6090,-0.6561,-0.6543,-0.4077,1.7095,-1.0157
0.841116,0.5798,-0.5006,-0.7380,-0.4077,1.7095,-1.0157
0.849058,0.5798,-0.5006,-0.7380,-0.4077,1.7095,-1.0157
0.850244,0.5798,-0.5006,-0.7380,-0.4162,1.6962,-1.0401
0.851161,0.5266,-0.4247,-0.8134,-0.4162,1.6962,-1.0401
0.851989,0.5266,-0.4247,-0.8134,-0.4320,1.6815,-1.0620
0.852831,0.4490,-0.3128,-0.8500,-0.4320,1.6815,-1.0620
0.853657,0.4490,-0.3128,-0.8500,-0.4320,1.6815,-1.0620
0.854638,0.3611,-0.2288,-0.9409,-0.4320,1.6815,-1.0620
0.855457,0.3611,-0.2288,-0.9409,-0.4320,1.6815,-1.0620
0.856017,0.3611,-0.2288,-0.9409,-0.4517,1.6693,-1.0840
0.856795,0.3611,-0.2288,-0.9409,-0.4517,1.6693,-1.0840
0.857427,0.3611,-0.2288,-0.9409,-0.4748,1.6620,-1.1025
0.858193,0.2548,-0.1925,-1.0070,-0.4748,1.6620,-1.1025
0.858962,0.2548,-0.1925,-1.0070,-0.4748,1.6620,-1.1025
0.859577,0.2548,-0.1925,-1.0070,-0.5042,1.6558,-1.1208
0.860333,0.1396,-0.1503,-1.0749,-0.5042,1.6558,-1.1208
0.861097,0.1396,-0.1503,-1.0749,-0.5042,1.6558,-1.1208
0.861739,0.1396,-0.1503,-1.0749,-0.5383,1.6534,-1.1330
0.862498,0.0236,-0.0784,-1.0614,-0.5383,1.6534,-1.1330
0.863230,0.0236,-0.0784,-1.0614,-0.5383,1.6534,-1.1330
0.863804,0.0236,-0.0784,-1.0614,-0.5750,1.6448,-1.1428
0.864583,-0.1201,-0.0846,-1.0978,-0.5750,1.6448,-1.1428
0.865379,-0.1201,-0.0846,-1.0978,-0.5750,1.6448,-1.1428
0.865958,-0.1201,-0.0846,-1.0978,-0.6141,1.6327,-1.1501
0.866772,-0.2895,-0.0418,-1.1118,-0.6141,1.6327,-1.1501
0.867509,-0.2895,-0.0418,-1.1118,-0.6141,1.6327,-1.1501
0.868057,-0.2895,-0.0418,-1.1118,-0.6581,1.6192,-1.1525
0.868873,-0.4682,0.0274,-1.0832,-0.6581,1.6192,-1.1525
0.869746,-0.4682,0.0274,-1.0832,-0.6581,1.6192,-1.1525
0.870280,-0.4682,0.0274,-1.0832,-0.7058,1.6033,-1.1501
0.870938,-0.6697,0.0904,-1.0245,-0.7058,1.6033,-1.1501
0.871649,-0.6697,0.0904,-1.0245,-0.7058,1.6033,-1.1501
0.872482,-0.6697,0.0904,-1.0245,-0.7546,1.5874,-1.1440
0.873624,-0.8140,0.1043,-1.0340,-0.7546,1.5874,-1.1440
0.874501,-0.8140,0.1043,-1.0340,-0.7546,1.5874,-1.1440
0.874913,-0.8140,0.1043,-1.0340,-0.8034,1.5764,-1.1318
0.875631,-0.9821,0.1128,-0.9790,-0.8034,1.5764,-1.1318
0.876394,-0.9821,0.1128,-0.9790,-0.8034,1.5764,-1.1318
0.876808,-0.9821,0.1128,-0.9790,-0.8548,1.5703,-1.1158
0.877394,-1.0959,0.1038,-0.9521,-0.8548,1.5703,-1.1158
0.877963,-1.0959,0.1038,-0.9521,-0.8548,1.5703,-1.1158
0.878431,-1.0959,0.1038,-0.9521,-0.9074,1.5752,-1.0963
0.879094,-1.2260,0.0692,-0.9079,-0.9074,1.5752,-1.0963
0.879792,-1.2260,0.0692,-0.9079,-0.9074,1.5752,-1.0963
0.880248,-1.2260,0.0692,-0.9079,-0.9562,1.5812,-1.0731
0.880957,-1.2558,0.0035,-0.8199,-0.9562,1.5812,-1.0731
0.881501,-1.2558,0.0035,-0.8199,-0.9562,1.5812,-1.0731
0.881724,-1.2558,0.0035,-0.8199,-1.0062,1.5922,-1.0487
0.882044,-1.2789,-0.0035,-0.7186,-1.0062,1.5922,-1.0487
0.882368,-1.2789,-0.0035,-0.7186,-1.0062,1.5922,-1.0487
0.882586,-1.2789,-0.0035,-0.7186,-1.0515,1.6082,-1.0230
0.882915,-1.2673,-0.0842,-0.6209,-1.0515,1.6082,-1.0230
0.883335,-1.2673,-0.0842,-0.6209,-1.0515,1.6082,-1.0230
0.883578,-1.2673,-0.0842,-0.6209,-1.0942,1.6277,-0.9974
0.883897,-1.2063,-0.1826,-0.5594,-1.0942,1.6277,-0.9974
0.893160,-1.2063,-0.1826,-0.5594,-1.0942,1.6277,-0.9974
0.894107,-1.2063,-0.1826,-0.5594,-1.1333,1.6510,-0.9717
0.895032,-1.1583,-0.2472,-0.4384,-1.1333,1.6510,-0.9717
0.896057,-1.1583,-0.2472,-0.4384,-1.1333,1.6510,-0.9717
0.896448,-1.1583,-0.2472,-0.4384,-1.1688,1.6717,-0.9497
0.896807,-1.0240,-0.3745,-0.3365,-1.1688,1.6717,-0.9497
0.897103,-1.0240,-0.3745,-0.3365,-1.1688,1.6717,-0.9497
0.897369,-1.0240,-0.3745,-0.3365,-1.2042,1.6962,-0.9314
0.897710,-0.8499,-0.4555,-0.2696,-1.2042,1.6962,-0.9314
0.898052,-0.8499,-0.4555,-0.2696,-1.2042,1.6962,-0.9314
0.898278,-0.8499,-0.4555,-0.2696,-1.2360,1.7193,-0.9142
0.898597,-0.6744,-0.5729,-0.1797,-1.2360,1.7193,-0.9142
0.898908,-0.6744,-0.5729,-0.1797,-1.2360,1.7193,-0.9142
0.899138,-0.6744,-0.5729,-0.1797,-1.2628,1.7463,-0.9045
0.899450,-0.5089,-0.6837,-0.0662,-1.2628,1.7463,-0.9045
0.899828,-0.5089,-0.6837,-0.0662,-1.2628,1.7463,-0.9045
0.900065,-0.5089,-0.6837,-0.0662,-1.2860,1.7743,-0.9009
0.900414,-0.3129,-0.7564,0.0010,-1.2860,1.7743,-0.9009
0.900752,-0.3129,-0.7564,0.0010,-1.2860,1.7743,-0.9009
0.900983,-0.3129,-0.7564,0.0010,-1.3056,1.8048,-0.9020
0.901367,-0.1465,-0.8621,0.1545,-1.3056,1.8048,-0.9020
0.904836,-0.1465,-0.8621,0.1545,-1.3056,1.8048,-0.9020
0.905952,-0.1465,-0.8621,0.1545,-1.3215,1.8342,-0.9082
0.906709,0.0181,-0.9384,0.1995,-1.3215,1.8342,-0.9082
0.907359,0.0181,-0.9384,0.1995,-1.3215,1.8342,-0.9082
0.907657,0.0181,-0.9384,0.1995,-1.3338,1.8635,-0.9204
0.908083,0.2309,-0.9599,0.2793,-1.3338,1.8635,-0.9204
0.908501,0.2309,-0.9599,0.2793,-1.3338,1.8635,-0.9204
0.908801,0.2309,-0.9599,0.2793,-1.3398,1.8928,-0.9362
0.909237,0.4113,-1.0710,0.3666,-1.3398,1.8928,-0.9362
0.909717,0.4113,-1.0710,0.3666,-1.3398,1.8928,-0.9362
0.910007,0.4113,-1.0710,0.3666,-1.3398,1.9185,-0.9582
0.910418,0.5610,-1.0814,0.4560,-1.3398,1.9185,-0.9582
0.915441,0.5610,-1.0814,0.4560,-1.3398,1.9185,-0.9582
0.915823,0.5610,-1.0814,0.4560,-1.3361,1.9418,-0.9840
0.916388,0.7124,-1.1228,0.5152,-1.3361,1.9418,-0.9840
0.916911,0.7124,-1.1228,0.5152,-1.3361,1.9418,-0.9840
0.917196,0.7124,-1.1228,0.5152,-1.3240,1.9625,-1.0095
0.917690,0.8070,-1.0991,0.5532,-1.3240,1.9625,-1.0095
0.918116,0.8070,-1.0991,0.5532,-1.3240,1.9625,-1.0095
0.918390,0.8070,-1.0991,0.5532,-1.3080,1.9808,-1.0365
0.918841,0.9333,-1.1018,0.5764,-1.3080,1.9808,-1.0365
0.919274,0.9333,-1.1018,0.5764,-1.3080,1.9808,-1.0365
0.919546,0.9333,-1.1018,0.5764,-1.2860,2.0041,-1.0695
0.919993,1.0475,-1.1028,0.6190,-1.2860,2.0041,-1.0695
0.922583,1.0475,-1.1028,0.6190,-1.2860,2.0041,-1.0695
0.923387,1.0475,-1.1028,0.6190,-1.2592,2.0248,-1.1012
0.924428,1.0813,-1.1292,0.6147,-1.2592,2.0248,-1.1012
0.925076,1.0813,-1.1292,0.6147,-1.2592,2.0248,-1.1012
0.925695,1.0813,-1.1292,0.6147,-1.2298,2.0406,-1.1366
0.926130,1.1315,-1.0679,0.6271,-1.2298,2.0406,-1.1366
0.926540,1.1315,-1.0679,0.6271,-1.2298,2.0406,-1.1366
0.926850,1.1315,-1.0679,0.6271,-1.1980,2.0504,-1.1696
0.927200,1.1541,-1.0112,0.6857,-1.1980,2.0504,-1.1696
0.929701,1.1541,-1.0112,0.6857,-1.1980,2.0504,-1.1696
0.929959,1.1541,-1.0112,0.6857,-1.1615,2.0554,-1.2026
0.930343,1.1196,-0.9638,0.6769,-1.1615,2.0554,-1.2026
0.930734,1.1196,-0.9638,0.6769,-1.1615,2.0554,-1.2026
0.930966,1.1196,-0.9638,0.6769,-1.1248,2.0614,-1.2343
0.931294,1.0623,-0.9141,0.6747,-1.1248,2.0614,-1.2343
0.933157,1.0623,-0.9141,0.6747,-1.1248,2.0614,-1.2343
0.933967,1.0623,-0.9141,0.6747,-1.0905,2.0651,-1.2673
0.935105,1.0309,-0.8421,0.6441,-1.0905,2.0651,-1.2673
0.936295,1.0309,-0.8421,0.6441,-1.0905,2.0651,-1.2673
0.936962,1.0309,-0.8421,0.6441,-1.0552,2.0676,-1.2966
0.938085,0.9985,-0.8065,0.6317,-1.0552,2.0676,-1.2966
0.938875,0.9985,-0.8065,0.6317,-1.0552,2.0676,-1.2966
0.939365,0.9985,-0.8065,0.6317,-1.0209,2.0712,-1.3261
0.940090,0.9581,-0.7490,0.5604,-1.0209,2.0712,-1.3261
0.940695,0.9581,-0.7490,0.5604,-1.0209,2.0712,-1.3261
0.941117,0.9581,-0.7490,0.5604,-0.9879,2.0736,-1.3516
0.941789,0.9364,-0.7118,0.5133,-0.9879,2.0736,-1.3516
0.946592,0.9364,-0.7118,0.5133,-0.9879,2.0736,-1.3516
0.947079,0.9364,-0.7118,0.5133,-0.9611,2.0761,-1.3786
0.947746,0.8607,-0.7013,0.4837,-0.9611,2.0761,-1.3786
0.948356,0.8607,-0.7013,0.4837,-0.9611,2.0761,-1.3786
0.948763,0.8607,-0.7013,0.4837,-0.9354,2.0798,-1.4054
0.949444,0.8216,-0.7212,0.4870,-0.9354,2.0798,-1.4054
0.950137,0.8216,-0.7212,0.4870,-0.9354,2.0798,-1.4054
0.950540,0.8216,-0.7212,0.4870,-0.9122,2.0859,-1.4347
0.951126,0.7819,-0.7349,0.4513,-0.9122,2.0859,-1.4347
0.951729,0.7819,-0.7349,0.4513,-0.9122,2.0859,-1.4347
0.952153,0.7819,-0.7349,0.4513,-0.8927,2.0969,-1.4629
0.952719,0.7414,-0.7683,0.4164,-0.8927,2.0969,-1.4629
0.953365,0.7414,-0.7683,0.4164,-0.8927,2.0969,-1.4629
0.953802,0.7414,-0.7683,0.4164,-0.8744,2.1152,-1.4897
0.954454,0.6569,-0.8317,0.3958,-0.8744,2.1152,-1.4897
0.955100,0.6569,-0.8317,0.3958,-0.8744,2.1152,-1.4897
0.955514,0.6569,-0.8317,0.3958,-0.8609,2.1372,-1.5190
0.956073,0.6395,-0.8812,0.3760,-0.8609,2.1372,-1.5190
0.959390,0.6395,-0.8812,0.3760,-0.8609,2.1372,-1.5190
0.960077,0.6395,-0.8812,0.3760,-0.8499,2.1616,-1.5459
0.960782,0.6029,-0.9388,0.3636,-0.8499,2.1616,-1.5459
0.961721,0.6029,-0.9388,0.3636,-0.8499,2.1616,-1.5459
0.962210,0.6029,-0.9388,0.3636,-0.8377,2.1934,-1.5716
0.962593,0.5865,-0.9479,0.3782,-0.8377,2.1934,-1.5716
0.962969,0.5865,-0.9479,0.3782,-0.8377,2.1934,-1.5716
0.963239,0.5865,-0.9479,0.3782,-0.8279,2.2252,-1.5984
0.963577,0.6029,-0.9826,0.4441,-0.8279,2.2252,-1.5984
0.963918,0.6029,-0.9826,0.4441,-0.8279,2.2252,-1.5984
0.964152,0.6029,-0.9826,0.4441,-0.8133,2.2617,-1.6217
0.964491,0.6035,-1.0025,0.5186,-0.8133,2.2617,-1.6217
0.973131,0.6035,-1.0025,0.5186,-0.8133,2.2617,-1.6217
0.974317,0.6035,-1.0025,0.5186,-0.8023,2.2997,-1.6461
0.975046,0.5733,-1.0997,0.5416,-0.8023,2.2997,-1.6461
0.975732,0.5733,-1.0997,0.5416,-0.8023,2.2997,-1.6461
0.976136,0.5733,-1.0997,0.5416,-0.7876,2.3424,-1.6680
0.976767,0.5736,-1.1594,0.5909,-0.7876,2.3424,-1.6680
0.977498,0.5736,-1.1594,0.5909,-0.7876,2.3424,-1.6680
0.977956,0.5736,-1.1594,0.5909,-0.7717,2.3877,-1.6864
0.978543,0.6095,-1.2175,0.6712,-0.7717,2.3877,-1.6864
0.979173,0.6095,-1.2175,0.6712,-0.7717,2.3877,-1.6864
0.979576,0.6095,-1.2175,0.6712,-0.7534,2.4365,-1.7072
0.980227,0.5990,-1.2938,0.7217,-0.7534,2.4365,-1.7072
0.980854,0.5990,-1.2938,0.7217,-0.7534,2.4365,-1.7072
0.981313,0.5990,-1.2938,0.7217,-0.7314,2.4878,-1.7255
0.981955,0.6428,-1.3205,0.7812,-0.7314,2.4878,-1.7255
0.982597,0.6428,-1.3205,0.7812,-0.7314,2.4878,-1.7255
0.983070,0.6428,-1.3205,0.7812,-0.7070,2.5367,-1.7487
0.983670,0.6977,-1.3672,0.8646,-0.7070,2.5367,-1.7487
0.984258,0.6977,-1.3672,0.8646,-0.7070,2.5367,-1.7487
0.984656,0.6977,-1.3672,0.8646,-0.6753,2.5831,-1.7707
0.985298,0.7518,-1.3801,0.9068,-0.6753,2.5831,-1.7707
0.985918,0.7518,-1.3801,0.9068,-0.6753,2.5831,-1.7707
0.986329,0.7518,-1.3801,0.9068,-0.6423,2.6333,-1.7927
0.986933,0.7910,-1.3954,0.9638,-0.6423,2.6333,-1.7927
0.987581,0.7910,-1.3954,0.9638,-0.6423,2.6333,-1.7927
0.987986,0.7910,-1.3954,0.9638,-0.6031,2.6918,-1.8183
0.988551,0.7699,-1.4328,0.9763,-0.6031,2.6918,-1.8183
0.989156,0.7699,-1.4328,0.9763,-0.6031,2.6918,-1.8183
0.989643,0.7699,-1.4328,0.9763,-0.5616,2.7529,-1.8415
0.990304,0.7327,-1.4676,0.9783,-0.5616,2.7529,-1.8415
0.990894,0.7327,-1.4676,0.9783,-0.5616,2.7529,-1.8415
0.991285,0.7327,-1.4676,0.9783,-0.5163,2.8116,-1.8648
0.991846,0.7887,-1.4885,1.0290,-0.5163,2.8116,-1.8648
0.992478,0.7887,-1.4885,1.0290,-0.5163,2.8116,-1.8648
0.992853,0.7887,-1.4885,1.0290,-0.4650,2.8678,-1.8868
0.993458,0.7759,-1.4385,1.0841,-0.4650,2.8678,-1.8868
1.002505,0.7759,-1.4385,1.0841,-0.4650,2.8678,-1.8868
1.002965,0.7759,-1.4385,1.0841,-0.4113,2.9215,-1.9063
1.003586,0.7300,-1.4047,1.1664,-0.4113,2.9215,-1.9063
1.004313,0.7300,-1.4047,1.1664,-0.4113,2.9215,-1.9063
1.004745,0.7300,-1.4047,1.1664,-0.3552,2.9704,-1.9246
1.005397,0.7223,-1.3824,1.1797,-0.3552,2.9704,-1.9246
1.006048,0.7223,-1.3824,1.1797,-0.3552,2.9704,-1.9246
1.006642,0.7223,-1.3824,1.1797,-0.2964,3.0107,-1.9418
1.007217,0.7874,-1.3307,1.2206,-0.2964,3.0107,-1.9418
1.007812,0.7874,-1.3307,1.2206,-0.2964,3.0107,-1.9418
1.008245,0.7874,-1.3307,1.2206,-0.2354,3.0462,-1.9588
1.008872,0.8410,-1.2716,1.2858,-0.2354,3.0462,-1.9588
1.009513,0.8410,-1.2716,1.2858,-0.2354,3.0462,-1.9588
1.009923,0.8410,-1.2716,1.2858,-0.1719,3.0755,-1.9784
1.010573,0.7880,-1.2545,1.3089,-0.1719,3.0755,-1.9784
1.011189,0.7880,-1.2545,1.3089,-0.1719,3.0755,-1.9784
1.011631,0.7880,-1.2545,1.3089,-0.1071,3.0938,-1.9943
1.012256,0.8063,-1.1663,1.3461,-0.1071,3.0938,-1.9943
1.012870,0.8063,-1.1663,1.3461,-0.1071,3.0938,-1.9943
1.013336,0.8063,-1.1663,1.3461,-0.0436,3.1012,-2.0101
1.013977,0.8956,-1.0934,1.3388,-0.0436,3.1012,-2.0101
1.014609,0.8956,-1.0934,1.3388,-0.0436,3.1012,-2.0101
1.015006,0.8956,-1.0934,1.3388,0.0199,3.0999,-2.0296
1.015555,0.8765,-1.0750,1.3256,0.0199,3.0999,-2.0296
1.016251,0.8765,-1.0750,1.3256,0.0199,3.0999,-2.0296
1.016651,0.8765,-1.0750,1.3256,0.0810,3.0925,-2.0468
1.017169,0.8038,-1.0314,1.3007,0.0810,3.0925,-2.0468
1.017877,0.8038,-1.0314,1.3007,0.0810,3.0925,-2.0468
1.018272,0.8038,-1.0314,1.3007,0.1409,3.0779,-2.0626
1.018875,0.7954,-1.0324,1.3475,0.1409,3.0779,-2.0626
1.019489,0.7954,-1.0324,1.3475,0.1409,3.0779,-2.0626
1.019915,0.7954,-1.0324,1.3475,0.2007,3.0584,-2.0773
1.020523,0.7435,-1.0091,1.3692,0.2007,3.0584,-2.0773
1.021157,0.7435,-1.0091,1.3692,0.2007,3.0584,-2.0773
1.021681,0.7435,-1.0091,1.3692,0.2607,3.0364,-2.0932
1.022203,0.7117,-1.0465,1.4178,0.2607,3.0364,-2.0932
1.025600,0.7117,-1.0465,1.4178,0.2607,3.0364,-2.0932
1.026127,0.7117,-1.0465,1.4178,0.3193,3.0107,-2.1066
1.026514,0.7231,-1.0650,1.4330,0.3193,3.0107,-2.1066
1.026944,0.7231,-1.0650,1.4330,0.3193,3.0107,-2.1066
1.027193,0.7231,-1.0650,1.4330,0.3730,2.9839,-2.1249
1.027539,0.8279,-1.0882,1.3700,0.3730,2.9839,-2.1249
1.027910,0.8279,-1.0882,1.3700,0.3730,2.9839,-2.1249
1.028126,0.8279,-1.0882,1.3700,0.4268,2.9582,-2.1469
1.028498,0.9497,-1.1276,1.2906,0.4268,2.9582,-2.1469
1.035337,0.9497,-1.1276,1.2906,0.4268,2.9582,-2.1469
1.035987,0.9497,-1.1276,1.2906,0.4733,2.9337,-2.1726
1.036731,1.0483,-1.1672,1.1814,0.4733,2.9337,-2.1726
1.037409,1.0483,-1.1672,1.1814,0.4733,2.9337,-2.1726
1.037685,1.0483,-1.1672,1.1814,0.5160,2.9167,-2.1995
1.038039,1.1065,-1.2165,1.0606,0.5160,2.9167,-2.1995
1.038430,1.1065,-1.2165,1.0606,0.5160,2.9167,-2.1995
1.038703,1.1065,-1.2165,1.0606,0.5489,2.9105,-2.2312
1.039088,1.0634,-1.2413,1.0072,0.5489,2.9105,-2.2312
1.039483,1.0634,-1.2413,1.0072,0.5489,2.9105,-2.2312
1.039729,1.0634,-1.2413,1.0072,0.5771,2.9167,-2.2642
1.040070,0.9131,-1.2002,0.9705,0.5771,2.9167,-2.2642
1.040521,0.9131,-1.2002,0.9705,0.5771,2.9167,-2.2642
1.040854,0.9131,-1.2002,0.9705,0.6003,2.9314,-2.2960
1.041404,0.7875,-1.1210,0.9609,0.6003,2.9314,-2.2960
1.043952,0.7875,-1.1210,0.9609,0.6003,2.9314,-2.2960
1.044323,0.7875,-1.1210,0.9609,0.6161,2.9509,-2.3314
1.044845,0.5840,-0.9822,1.0101,0.6161,2.9509,-2.3314
1.045484,0.5840,-0.9822,1.0101,0.6161,2.9509,-2.3314
1.045944,0.5840,-0.9822,1.0101,0.6247,2.9679,-2.3644
1.046416,0.2574,-0.8517,1.1119,0.6247,2.9679,-2.3644
1.046938,0.2574,-0.8517,1.1119,0.6247,2.9679,-2.3644
1.047279,0.2574,-0.8517,1.1119,0.6333,2.9741,-2.3950
1.047803,-0.1336,-0.7806,1.2621,0.6333,2.9741,-2.3950
1.050315,-0.1336,-0.7806,1.2621,0.6333,2.9741,-2.3950
1.050886,-0.1336,-0.7806,1.2621,0.6344,2.9655,-2.4207
1.051507,-0.5420,-0.7217,1.3967,0.6344,2.9655,-2.4207
1.052082,-0.5420,-0.7217,1.3967,0.6344,2.9655,-2.4207
1.052426,-0.5420,-0.7217,1.3967,0.6357,2.9447,-2.4377
1.052936,-0.7521,-0.6055,1.5861,0.6357,2.9447,-2.4377
1.055966,-0.7521,-0.6055,1.5861,0.6357,2.9447,-2.4377
1.056376,-0.7521,-0.6055,1.5861,0.6381,2.9129,-2.4548
1.056796,-1.1000,-0.5681,1.7893,0.6381,2.9129,-2.4548
1.057195,-1.1000,-0.5681,1.7893,0.6381,2.9129,-2.4548
1.057522,-1.1000,-0.5681,1.7893,0.6431,2.8726,-2.4634
1.058138,-1.4000,-0.5574,2.0050,0.6431,2.8726,-2.4634
1.058942,-1.4000,-0.5574,2.0050,0.6431,2.8726,-2.4634
1.059411,-1.4000,-0.5574,2.0050,0.6504,2.8262,-2.4670
1.059926,-1.4911,-0.4698,2.2038,0.6504,2.8262,-2.4670
1.066725,-1.4911,-0.4698,2.2038,0.6504,2.8262,-2.4670
1.067529,-1.4911,-0.4698,2.2038,0.6639,2.7736,-2.4757
1.068165,-1.3086,-0.2402,2.4483,0.6639,2.7736,-2.4757
1.069013,-1.3086,-0.2402,2.4483,0.6639,2.7736,-2.4757
1.069753,-1.3086,-0.2402,2.4483,0.6834,2.7138,-2.4927
1.070460,-1.3375,-0.0804,2.6336,0.6834,2.7138,-2.4927
1.070915,-1.3375,-0.0804,2.6336,0.6834,2.7138,-2.4927
1.071252,-1.3375,-0.0804,2.6336,0.7114,2.6551,-2.5110
1.071658,-1.4278,-0.0755,2.8817,0.7114,2.6551,-2.5110
1.072088,-1.4278,-0.0755,2.8817,0.7114,2.6551,-2.5110
1.072411,-1.4278,-0.0755,2.8817,0.7444,2.6014,-2.5270
1.072838,-1.4903,-0.1026,3.0987,0.7444,2.6014,-2.5270
1.073313,-1.4903,-0.1026,3.0987,0.7444,2.6014,-2.5270
1.073650,-1.4903,-0.1026,3.0987,0.7811,2.5488,-2.5405
1.074089,-1.6910,-0.1606,3.3157,0.7811,2.5488,-2.5405
1.074610,-1.6910,-0.1606,3.3157,0.7811,2.5488,-2.5405
1.074972,-1.6910,-0.1606,3.3157,0.8262,2.4866,-2.5477
1.075415,-1.7019,-0.1348,3.4270,0.8262,2.4866,-2.5477
1.075884,-1.7019,-0.1348,3.4270,0.8262,2.4866,-2.5477
1.076204,-1.7019,-0.1348,3.4270,0.8715,2.4157,-2.5563
1.076606,-1.7633,-0.2241,3.5239,0.8715,2.4157,-2.5563
1.087218,-1.7633,-0.2241,3.5239,0.8715,2.4157,-2.5563
1.087574,-1.7633,-0.2241,3.5239,0.9179,2.3400,-2.5624
1.088976,-1.8169,-0.3178,3.5412,0.9179,2.3400,-2.5624
1.090126,-1.8169,-0.3178,3.5412,0.9179,2.3400,-2.5624
1.090867,-1.8169,-0.3178,3.5412,0.9620,2.2655,-2.5685
1.091726,-1.9490,-0.4726,3.5539,0.9620,2.2655,-2.5685
1.092311,-1.9490,-0.4726,3.5539,0.9620,2.2655,-2.5685
1.092675,-1.9490,-0.4726,3.5539,1.0083,2.1909,-2.5673
1.093213,-2.0193,-0.6058,3.5119,1.0083,2.1909,-2.5673
1.094414,-2.0193,-0.6058,3.5119,1.0083,2.1909,-2.5673
1.094923,-2.0193,-0.6058,3.5119,1.0510,2.1224,-2.5648
1.095543,-1.9629,-0.7253,3.3893,1.0510,2.1224,-2.5648
1.096311,-1.9629,-0.7253,3.3893,1.0510,2.1224,-2.5648
1.096764,-1.9629,-0.7253,3.3893,1.0878,2.0589,-2.5648
1.097381,-2.0355,-0.9039,3.2543,1.0878,2.0589,-2.5648
1.098026,-2.0355,-0.9039,3.2543,1.0878,2.0589,-2.5648
1.098472,-2.0355,-0.9039,3.2543,1.1208,2.0052,-2.5575
1.098839,-2.0061,-1.0620,3.0741,1.1208,2.0052,-2.5575
1.099160,-2.0061,-1.0620,3.0741,1.1208,2.0052,-2.5575
1.099385,-2.0061,-1.0620,3.0741,1.1488,1.9563,-2.5490
1.099699,-1.9166,-1.1123,2.8667,1.1488,1.9563,-2.5490
1.100036,-1.9166,-1.1123,2.8667,1.1488,1.9563,-2.5490
1.100278,-1.9166,-1.1123,2.8667,1.1708,1.9198,-2.5415
1.100599,-1.9348,-1.2347,2.6604,1.1708,1.9198,-2.5415
1.100959,-1.9348,-1.2347,2.6604,1.1708,1.9198,-2.5415
1.101175,-1.9348,-1.2347,2.6604,1.1891,1.8903,-2.5306
1.101543,-1.8715,-1.2885,2.4495,1.1891,1.8903,-2.5306
1.101890,-1.8715,-1.2885,2.4495,1.1891,1.8903,-2.5306
1.102109,-1.8715,-1.2885,2.4495,1.2038,1.8721,-2.5208
1.102431,-1.6920,-1.2842,2.2930,1.2038,1.8721,-2.5208
1.102780,-1.6920,-1.2842,2.2930,1.2038,1.8721,-2.5208
1.103036,-1.6920,-1.2842,2.2930,1.2111,1.8611,-2.5135
1.103392,-1.5807,-1.3761,2.1622,1.2111,1.8611,-2.5135
1.103734,-1.5807,-1.3761,2.1622,1.2111,1.8611,-2.5135
1.103970,-1.5807,-1.3761,2.1622,1.2184,1.8525,-2.5062
1.104287,-1.5599,-1.4460,2.0192,1.2184,1.8525,-2.5062
1.110733,-1.5599,-1.4460,2.0192,1.2184,1.8525,-2.5062
1.111447,-1.5599,-1.4460,2.0192,1.2221,1.8501,-2.5013
1.111969,-1.4263,-1.4058,1.8710,1.2221,1.8501,-2.5013
1.112342,-1.4263,-1.4058,1.8710,1.2221,1.8501,-2.5013
1.112609,-1.4263,-1.4058,1.8710,1.2233,1.8488,-2.4964
1.112978,-1.3852,-1.3976,1.7637,1.2233,1.8488,-2.4964
1.113358,-1.3852,-1.3976,1.7637,1.2233,1.8488,-2.4964
1.113585,-1.3852,-1.3976,1.7637,1.2221,1.8453,-2.5037
1.113883,-1.3274,-1.3540,1.6582,1.2221,1.8453,-2.5037
1.114244,-1.3274,-1.3540,1.6582,1.2221,1.8453,-2.5037
1.114458,-1.3274,-1.3540,1.6582,1.2173,1.8391,-2.5147
1.114801,-1.2512,-1.3420,1.5845,1.2173,1.8391,-2.5147
1.116250,-1.2512,-1.3420,1.5845,1.2173,1.8391,-2.5147
1.116495,-1.2512,-1.3420,1.5845,1.2099,1.8268,-2.5306
1.116809,-1.1586,-1.2916,1.4756,1.2099,1.8268,-2.5306
1.118065,-1.1586,-1.2916,1.4756,1.2099,1.8268,-2.5306
1.118403,-1.1586,-1.2916,1.4756,1.2026,1.8085,-2.5575
1.119034,-1.2366,-1.3024,1.4034,1.2026,1.8085,-2.5575
1.120641,-1.2366,-1.3024,1.4034,1.2026,1.8085,-2.5575
1.120903,-1.2366,-1.3024,1.4034,1.1940,1.7841,-2.5856
1.121305,-1.3364,-1.3695,1.3049,1.1940,1.7841,-2.5856
1.122809,-1.3364,-1.3695,1.3049,1.1940,1.7841,-2.5856
1.123089,-1.3364,-1.3695,1.3049,1.1818,1.7585,-2.6173
1.123802,-1.3759,-1.4218,1.2269,1.1818,1.7585,-2.6173
1.128745,-1.3759,-1.4218,1.2269,1.1818,1.7585,-2.6173
1.129540,-1.3759,-1.4218,1.2269,1.1683,1.7340,-2.6528
1.130276,-1.3983,-1.4421,1.1915,1.1683,1.7340,-2.6528
1.130840,-1.3983,-1.4421,1.1915,1.1683,1.7340,-2.6528
1.131173,-1.3983,-1.4421,1.1915,1.1501,1.7108,-2.6870
1.131691,-1.6374,-1.5525,1.1130,1.1501,1.7108,-2.6870
1.132182,-1.6374,-1.5525,1.1130,1.1501,1.7108,-2.6870
1.132503,-1.6374,-1.5525,1.1130,1.1341,1.6852,-2.7188
1.132945,-1.8302,-1.6233,1.1010,1.1341,1.6852,-2.7188
1.133498,-1.8302,-1.6233,1.1010,1.1341,1.6852,-2.7188
1.133821,-1.8302,-1.6233,1.1010,1.1158,1.6620,-2.7468
1.134233,-1.9890,-1.6103,1.0955,1.1158,1.6620,-2.7468
1.134682,-1.9890,-1.6103,1.0955,1.1158,1.6620,-2.7468
1.134967,-1.9890,-1.6103,1.0955,1.0950,1.6412,-2.7713
1.135347,-2.1854,-1.6277,1.1149,1.0950,1.6412,-2.7713
1.137826,-2.1854,-1.6277,1.1149,1.0950,1.6412,-2.7713
1.138172,-2.1854,-1.6277,1.1149,1.0755,1.6167,-2.7908
1.138677,-2.5253,-1.6188,1.1057,1.0755,1.6167,-2.7908
1.139156,-2.5253,-1.6188,1.1057,1.0755,1.6167,-2.7908
1.139475,-2.5253,-1.6188,1.1057,1.0596,1.5912,-2.8018
1.139908,-2.7301,-1.5916,1.1622,1.0596,1.5912,-2.8018
1.143733,-2.7301,-1.5916,1.1622,1.0596,1.5912,-2.8018
1.144416,-2.7301,-1.5916,1.1622,1.0450,1.5630,-2.8091
1.145080,-2.9204,-1.5481,1.1980,1.0450,1.5630,-2.8091
1.145849,-2.9204,-1.5481,1.1980,1.0450,1.5630,-2.8091
1.146274,-2.9204,-1.5481,1.1980,1.0315,1.5324,-2.8116
1.146757,-3.0805,-1.5125,1.1933,1.0315,1.5324,-2.8116
1.147221,-3.0805,-1.5125,1.1933,1.0315,1.5324,-2.8116
1.147519,-3.0805,-1.5125,1.1933,1.0205,1.5019,-2.8079
1.148012,-3.2682,-1.5189,1.2379,1.0205,1.5019,-2.8079
1.149924,-3.2682,-1.5189,1.2379,1.0205,1.5019,-2.8079
1.150159,-3.2682,-1.5189,1.2379,1.0120,1.4787,-2.7957
1.150567,-3.4364,-1.5325,1.2891,1.0120,1.4787,-2.7957
1.152162,-3.4364,-1.5325,1.2891,1.0120,1.4787,-2.7957
1.152642,-3.4364,-1.5325,1.2891,1.0083,1.4567,-2.7774
1.153388,-3.6650,-1.5476,1.3686,1.0083,1.4567,-2.7774
1.154143,-3.6650,-1.5476,1.3686,1.0083,1.4567,-2.7774
1.154454,-3.6650,-1.5476,1.3686,1.0083,1.4384,-2.7506
1.154756,-3.8419,-1.5911,1.4186,1.0083,1.4384,-2.7506
1.156366,-3.8419,-1.5911,1.4186,1.0083,1.4384,-2.7506
1.156891,-3.8419,-1.5911,1.4186,1.0157,1.4212,-2.7211
1.157590,-3.8410,-1.5474,1.4513,1.0157,1.4212,-2.7211
1.159924,-3.8410,-1.5474,1.4513,1.0157,1.4212,-2.7211
1.160244,-3.8410,-1.5474,1.4513,1.0255,1.4091,-2.6906
1.160627,-3.8623,-1.5183,1.4983,1.0255,1.4091,-2.6906
1.162317,-3.8623,-1.5183,1.4983,1.0255,1.4091,-2.6906
1.162809,-3.8623,-1.5183,1.4983,1.0425,1.3969,-2.6588
1.163374,-3.8988,-1.4871,1.5278,1.0425,1.3969,-2.6588
1.163738,-3.8988,-1.4871,1.5278,1.0425,1.3969,-2.6588
1.164060,-3.8988,-1.4871,1.5278,1.0620,1.3919,-2.6247
1.164449,-3.9274,-1.4669,1.5949,1.0620,1.3919,-2.6247
1.165843,-3.9274,-1.4669,1.5949,1.0620,1.3919,-2.6247
1.166162,-3.9274,-1.4669,1.5949,1.0878,1.3846,-2.5880
1.166602,-3.9130,-1.4435,1.6815,1.0878,1.3846,-2.5880
1.168061,-3.9130,-1.4435,1.6815,1.0878,1.3846,-2.5880
1.168361,-3.9130,-1.4435,1.6815,1.1195,1.3809,-2.5502
1.168781,-3.8296,-1.3772,1.7166,1.1195,1.3809,-2.5502
1.170739,-3.8296,-1.3772,1.7166,1.1195,1.3809,-2.5502
1.171076,-3.8296,-1.3772,1.7166,1.1561,1.3797,-2.5147
1.171493,-3.7330,-1.3191,1.7660,1.1561,1.3797,-2.5147
1.172751,-3.7330,-1.3191,1.7660,1.1561,1.3797,-2.5147
1.173052,-3.7330,-1.3191,1.7660,1.1940,1.3797,-2.4817
1.173541,-3.6825,-1.2578,1.7951,1.1940,1.3797,-2.4817
1.176634,-3.6825,-1.2578,1.7951,1.1940,1.3797,-2.4817
1.177332,-3.6825,-1.2578,1.7951,1.2343,1.3797,-2.4512
1.178025,-3.5799,-1.1498,1.8185,1.2343,1.3797,-2.4512
1.178573,-3.5799,-1.1498,1.8185,1.2343,1.3797,-2.4512
1.178889,-3.5799,-1.1498,1.8185,1.2796,1.3724,-2.4255
1.179342,-3.4334,-1.0667,1.8132,1.2796,1.3724,-2.4255
1.179806,-3.4334,-1.0667,1.8132,1.2796,1.3724,-2.4255
1.180100,-3.4334,-1.0667,1.8132,1.3271,1.3687,-2.4072
1.180584,-3.1941,-0.9904,1.8071,1.3271,1.3687,-2.4072
1.182755,-3.1941,-0.9904,1.8071,1.3271,1.3687,-2.4072
1.183126,-3.1941,-0.9904,1.8071,1.3773,1.3663,-2.3974
1.183657,-2.9819,-0.9468,1.7474,1.3773,1.3663,-2.3974
1.184883,-2.9819,-0.9468,1.7474,1.3773,1.3663,-2.3974
1.185214,-2.9819,-0.9468,1.7474,1.4286,1.3663,-2.3974
1.185698,-2.7450,-0.9397,1.6540,1.4286,1.3663,-2.3974
1.187033,-2.7450,-0.9397,1.6540,1.4286,1.3663,-2.3974
1.187387,-2.7450,-0.9397,1.6540,1.4787,1.3687,-2.4072
1.187734,-2.5713,-0.9520,1.5142,1.4787,1.3687,-2.4072
1.189703,-2.5713,-0.9520,1.5142,1.4787,1.3687,-2.4072
1.190194,-2.5713,-0.9520,1.5142,1.5251,1.3749,-2.4207
1.190865,-2.3798,-0.9653,1.4026,1.5251,1.3749,-2.4207
1.191585,-2.3798,-0.9653,1.4026,1.5251,1.3749,-2.4207
1.192083,-2.3798,-0.9653,1.4026,1.5752,1.3784,-2.4390
1.192716,-2.3269,-1.0018,1.2529,1.5752,1.3784,-2.4390
1.197379,-2.3269,-1.0018,1.2529,1.5752,1.3784,-2.4390
1.198063,-2.3269,-1.0018,1.2529,1.6155,1.3846,-2.4622
1.198666,-2.3742,-1.0142,1.0707,1.6155,1.3846,-2.4622
1.199225,-2.3742,-1.0142,1.0707,1.6155,1.3846,-2.4622
1.199582,-2.3742,-1.0142,1.0707,1.6510,1.3907,-2.4817
1.200027,-2.4286,-0.9856,0.8293,1.6510,1.3907,-2.4817
1.200633,-2.4286,-0.9856,0.8293,1.6510,1.3907,-2.4817
1.200973,-2.4286,-0.9856,0.8293,1.6815,1.3981,-2.5013
1.201415,-2.4664,-0.9141,0.6041,1.6815,1.3981,-2.5013
1.201901,-2.4664,-0.9141,0.6041,1.6815,1.3981,-2.5013
1.202265,-2.4664,-0.9141,0.6041,1.7060,1.4079,-2.5196
1.202747,-2.5381,-0.7595,0.3356,1.7060,1.4079,-2.5196
1.203619,-2.5381,-0.7595,0.3356,1.7060,1.4079,-2.5196
1.203930,-2.5381,-0.7595,0.3356,1.7193,1.4189,-2.5380
1.204343,-2.6149,-0.5640,0.0536,1.7193,1.4189,-2.5380
1.210806,-2.6149,-0.5640,0.0536,1.7193,1.4189,-2.5380
1.211180,-2.6149,-0.5640,0.0536,1.7255,1.4310,-2.5563
1.211655,-2.7696,-0.4393,-0.2711,1.7255,1.4310,-2.5563
1.212201,-2.7696,-0.4393,-0.2711,1.7255,1.4310,-2.5563
1.212519,-2.7696,-0.4393,-0.2711,1.7230,1.4457,-2.5697
1.212944,-3.0595,-0.3446,-0.5694,1.7230,1.4457,-2.5697
1.213473,-3.0595,-0.3446,-0.5694,1.7230,1.4457,-2.5697
1.213785,-3.0595,-0.3446,-0.5694,1.7133,1.4554,-2.5733
1.214298,-3.3063,-0.3057,-0.8044,1.7133,1.4554,-2.5733
1.214846,-3.3063,-0.3057,-0.8044,1.7133,1.4554,-2.5733
1.215200,-3.3063,-0.3057,-0.8044,1.6973,1.4604,-2.5673
1.215614,-3.5282,-0.2159,-1.0520,1.6973,1.4604,-2.5673
1.216092,-3.5282,-0.2159,-1.0520,1.6973,1.4604,-2.5673
1.216398,-3.5282,-0.2159,-1.0520,1.6742,1.4567,-2.5587
1.216765,-3.7132,-0.1322,-1.2416,1.6742,1.4567,-2.5587
1.217208,-3.7132,-0.1322,-1.2416,1.6742,1.4567,-2.5587
1.217603,-3.7132,-0.1322,-1.2416,1.6435,1.4469,-2.5453
1.218017,-3.8592,-0.0105,-1.4381,1.6435,1.4469,-2.5453
1.223209,-3.8592,-0.0105,-1.4381,1.6435,1.4469,-2.5453
1.223588,-3.8592,-0.0105,-1.4381,1.6107,1.4310,-2.5245
1.224014,-4.0122,0.0151,-1.6665,1.6107,1.4310,-2.5245
1.224376,-4.0122,0.0151,-1.6665,1.6107,1.4310,-2.5245
1.224604,-4.0122,0.0151,-1.6665,1.5715,1.4139,-2.5000
1.224995,-4.0723,0.0675,-1.8698,1.5715,1.4139,-2.5000
1.230180,-4.0723,0.0675,-1.8698,1.5715,1.4139,-2.5000
1.230713,-4.0723,0.0675,-1.8698,1.5287,1.3919,-2.4744
1.231324,-4.0945,0.0879,-1.9952,1.5287,1.3919,-2.4744
1.231874,-4.0945,0.0879,-1.9952,1.5287,1.3919,-2.4744
1.232238,-4.0945,0.0879,-1.9952,1.4787,1.3712,-2.4475
1.232932,-4.0917,0.1040,-2.1432,1.4787,1.3712,-2.4475
1.233832,-4.0917,0.1040,-2.1432,1.4787,1.3712,-2.4475
1.234400,-4.0917,0.1040,-2.1432,1.4274,1.3431,-2.4195
1.235163,-4.0799,0.0862,-2.2733,1.4274,1.3431,-2.4195
1.235966,-4.0799,0.0862,-2.2733,1.4274,1.3431,-2.4195
1.236542,-4.0799,0.0862,-2.2733,1.3724,1.3113,-2.3937
1.237314,-4.0613,0.0375,-2.3853,1.3724,1.3113,-2.3937
1.238114,-4.0613,0.0375,-2.3853,1.3724,1.3113,-2.3937
1.238686,-4.0613,0.0375,-2.3853,1.3174,1.2746,-2.3694
1.239432,-3.9979,-0.0113,-2.4454,1.3174,1.2746,-2.3694
1.240221,-3.9979,-0.0113,-2.4454,1.3174,1.2746,-2.3694
1.240801,-3.9979,-0.0113,-2.4454,1.2612,1.2368,-2.3474
1.241636,-3.9079,-0.0959,-2.5124,1.2612,1.2368,-2.3474
1.242444,-3.9079,-0.0959,-2.5124,1.2612,1.2368,-2.3474
1.243030,-3.9079,-0.0959,-2.5124,1.2050,1.1989,-2.3302
1.243800,-3.8271,-0.1302,-2.5416,1.2050,1.1989,-2.3302
1.244636,-3.8271,-0.1302,-2.5416,1.2050,1.1989,-2.3302
1.245196,-3.8271,-0.1302,-2.5416,1.1476,1.1598,-2.3132
1.246193,-3.7766,-0.1874,-2.5918,1.1476,1.1598,-2.3132
1.246945,-3.7766,-0.1874,-2.5918,1.1476,1.1598,-2.3132
1.247577,-3.7766,-0.1874,-2.5918,1.0926,1.1243,-2.2960
1.248314,-3.7086,-0.2262,-2.5970,1.0926,1.1243,-2.2960
1.249107,-3.7086,-0.2262,-2.5970,1.0926,1.1243,-2.2960
1.249793,-3.7086,-0.2262,-2.5970,1.0388,1.0865,-2.2814
1.250557,-3.6197,-0.2860,-2.5823,1.0388,1.0865,-2.2814
1.251345,-3.6197,-0.2860,-2.5823,1.0388,1.0865,-2.2814
1.251925,-3.6197,-0.2860,-2.5823,0.9863,1.0523,-2.2630
1.252705,-3.5312,-0.3217,-2.5757,0.9863,1.0523,-2.2630
1.253516,-3.5312,-0.3217,-2.5757,0.9863,1.0523,-2.2630
1.253802,-3.5312,-0.3217,-2.5757,0.9350,1.0205,-2.2447
1.254270,-3.4769,-0.3641,-2.5540,0.9350,1.0205,-2.2447
1.254694,-3.4769,-0.3641,-2.5540,0.9350,1.0205,-2.2447
1.255002,-3.4769,-0.3641,-2.5540,0.8885,0.9949,-2.2264
1.255386,-3.3648,-0.2866,-2.4923,0.8885,0.9949,-2.2264
1.255799,-3.3648,-0.2866,-2.4923,0.8885,0.9949,-2.2264
1.256101,-3.3648,-0.2866,-2.4923,0.8447,0.9753,-2.2093
1.256608,-3.2837,-0.2633,-2.3943,0.8447,0.9753,-2.2093
1.264469,-3.2837,-0.2633,-2.3943,0.8447,0.9753,-2.2093
1.265106,-3.2837,-0.2633,-2.3943,0.8080,0.9620,-2.1922
1.265586,-3.2347,-0.2410,-2.2934,0.8080,0.9620,-2.1922
1.266005,-3.2347,-0.2410,-2.2934,0.8080,0.9620,-2.1922
1.266257,-3.2347,-0.2410,-2.2934,0.7749,0.9522,-2.1751
1.266660,-3.2997,-0.2028,-2.1627,0.7749,0.9522,-2.1751
1.267025,-3.2997,-0.2028,-2.1627,0.7749,0.9522,-2.1751
1.267243,-3.2997,-0.2028,-2.1627,0.7469,0.9460,-2.1567
1.267590,-3.3390,-0.1889,-2.0000,0.7469,0.9460,-2.1567
1.267908,-3.3390,-0.1889,-2.0000,0.7469,0.9460,-2.1567
1.268127,-3.3390,-0.1889,-2.0000,0.7249,0.9448,-2.1384
1.268424,-3.3632,-0.0694,-1.8204,0.7249,0.9448,-2.1384
1.268786,-3.3632,-0.0694,-1.8204,0.7249,0.9448,-2.1384
1.269013,-3.3632,-0.0694,-1.8204,0.7077,0.9460,-2.1176
1.269347,-3.4364,-0.0272,-1.6609,0.7077,0.9460,-2.1176
1.269679,-3.4364,-0.0272,-1.6609,0.7077,0.9460,-2.1176
1.269898,-3.4364,-0.0272,-1.6609,0.6980,0.9448,-2.0969
1.270188,-3.4995,0.0524,-1.5058,0.6980,0.9448,-2.0969
1.272199,-3.4995,0.0524,-1.5058,0.6980,0.9448,-2.0969
1.272660,-3.4995,0.0524,-1.5058,0.6944,0.9448,-2.0786
1.273410,-3.5526,0.1437,-1.3299,0.6944,0.9448,-2.0786
1.277449,-3.5526,0.1437,-1.3299,0.6944,0.9448,-2.0786
1.277842,-3.5526,0.1437,-1.3299,0.6931,0.9435,-2.0566
1.278303,-3.6397,0.1943,-1.1515,0.6931,0.9435,-2.0566
1.278722,-3.6397,0.1943,-1.1515,0.6931,0.9435,-2.0566
1.278962,-3.6397,0.1943,-1.1515,0.6969,0.9424,-2.0309
1.279308,-3.7888,0.2874,-0.9835,0.6969,0.9424,-2.0309
1.279642,-3.7888,0.2874,-0.9835,0.6969,0.9424,-2.0309
1.279888,-3.7888,0.2874,-0.9835,0.7077,0.9387,-1.9979
1.280181,-3.9276,0.3497,-0.7761,0.7077,0.9387,-1.9979
1.281462,-3.9276,0.3497,-0.7761,0.7077,0.9387,-1.9979
1.281847,-3.9276,0.3497,-0.7761,0.7237,0.9362,-1.9613
1.282285,-4.0333,0.4031,-0.6322,0.7237,0.9362,-1.9613
1.284041,-4.0333,0.4031,-0.6322,0.7237,0.9362,-1.9613
1.284331,-4.0333,0.4031,-0.6322,0.7419,0.9350,-1.9185
1.284734,-4.1846,0.5024,-0.4929,0.7419,0.9350,-1.9185
1.286360,-4.1846,0.5024,-0.4929,0.7419,0.9350,-1.9185
1.286822,-4.1846,0.5024,-0.4929,0.7627,0.9338,-1.8685
1.287501,-4.2985,0.5457,-0.4319,0.7627,0.9338,-1.8685
1.288919,-4.2985,0.5457,-0.4319,0.7627,0.9338,-1.8685
1.289246,-4.2985,0.5457,-0.4319,0.7897,0.9410,-1.8135
1.289810,-4.3788,0.6067,-0.3434,0.7897,0.9410,-1.8135
1.292909,-4.3788,0.6067,-0.3434,0.7897,0.9410,-1.8135
1.293403,-4.3788,0.6067,-0.3434,0.8189,0.9472,-1.7537
1.293967,-4.3652,0.6125,-0.3073,0.8189,0.9472,-1.7537
1.294510,-4.3652,0.6125,-0.3073,0.8189,0.9472,-1.7537
1.294841,-4.3652,0.6125,-0.3073,0.8495,0.9545,-1.6900
1.295327,-4.3510,0.5967,-0.2695,0.8495,0.9545,-1.6900
1.295811,-4.3510,0.5967,-0.2695,0.8495,0.9545,-1.6900
1.296087,-4.3510,0.5967,-0.2695,0.8837,0.9620,-1.6265
1.296450,-4.3040,0.5676,-0.2131,0.8837,0.9620,-1.6265
1.298507,-4.3040,0.5676,-0.2131,0.8837,0.9620,-1.6265
1.298848,-4.3040,0.5676,-0.2131,0.9192,0.9655,-1.5654
1.299366,-4.2192,0.4920,-0.2092,0.9192,0.9655,-1.5654
1.300576,-4.2192,0.4920,-0.2092,0.9192,0.9655,-1.5654
1.300897,-4.2192,0.4920,-0.2092,0.9520,0.9705,-1.5069
1.301382,-4.0416,0.4212,-0.2137,0.9520,0.9705,-1.5069
1.303403,-4.0416,0.4212,-0.2137,0.9520,0.9705,-1.5069
1.303836,-4.0416,0.4212,-0.2137,0.9863,0.9753,-1.4567
1.304353,-3.8636,0.3411,-0.1886,0.9863,0.9753,-1.4567
1.305082,-3.8636,0.3411,-0.1886,0.9863,0.9753,-1.4567
1.305613,-3.8636,0.3411,-0.1886,1.0193,0.9765,-1.4116
1.306260,-3.6327,0.2560,-0.1958,1.0193,0.9765,-1.4116
1.310711,-3.6327,0.2560,-0.1958,1.0193,0.9765,-1.4116
1.311363,-3.6327,0.2560,-0.1958,1.0475,0.9802,-1.3736
1.312025,-3.3434,0.1980,-0.2082,1.0475,0.9802,-1.3736
1.312685,-3.3434,0.1980,-0.2082,1.0475,0.9802,-1.3736
1.313135,-3.3434,0.1980,-0.2082,1.0768,0.9863,-1.3443
1.313983,-3.0677,0.1351,-0.2500,1.0768,0.9863,-1.3443
1.314698,-3.0677,0.1351,-0.2500,1.0768,0.9863,-1.3443
1.315141,-3.0677,0.1351,-0.2500,1.1036,0.9937,-1.3186
1.315817,-2.7685,0.0967,-0.2377,1.1036,0.9937,-1.3186
1.316507,-2.7685,0.0967,-0.2377,1.1036,0.9937,-1.3186
1.316920,-2.7685,0.0967,-0.2377,1.1268,1.0010,-1.3016
1.317599,-2.5379,0.1005,-0.2198,1.1268,1.0010,-1.3016
1.318214,-2.5379,0.1005,-0.2198,1.1268,1.0010,-1.3016
1.318644,-2.5379,0.1005,-0.2198,1.1476,1.0058,-1.2881
1.319092,-2.2921,0.0888,-0.2021,1.1476,1.0058,-1.2881
1.319589,-2.2921,0.0888,-0.2021,1.1476,1.0058,-1.2881
1.319907,-2.2921,0.0888,-0.2021,1.1659,1.0071,-1.2821
1.320346,-2.0798,0.1587,-0.2243,1.1659,1.0071,-1.2821
1.327450,-2.0798,0.1587,-0.2243,1.1659,1.0071,-1.2821
1.327856,-2.0798,0.1587,-0.2243,1.1831,1.0108,-1.2735
1.328428,-1.9917,0.3069,-0.4979,1.1831,1.0108,-1.2735
1.328942,-1.9917,0.3069,-0.4979,1.1831,1.0108,-1.2735
1.329315,-1.9917,0.3069,-0.4979,1.1953,1.0205,-1.2661
1.329764,-1.8881,0.3773,-0.5262,1.1953,1.0205,-1.2661
1.330320,-1.8881,0.3773,-0.5262,1.1953,1.0205,-1.2661
1.330656,-1.8881,0.3773,-0.5262,1.2063,1.0180,-1.2600
1.331161,-1.8326,0.3239,-0.4959,1.2063,1.0180,-1.2600
1.331654,-1.8326,0.3239,-0.4959,1.2063,1.0180,-1.2600
1.331959,-1.8326,0.3239,-0.4959,1.2111,1.0058,-1.2576
1.332322,-1.8542,0.3064,-0.6035,1.2111,1.0058,-1.2576
1.332826,-1.8542,0.3064,-0.6035,1.2111,1.0058,-1.2576
1.333169,-1.8542,0.3064,-0.6035,1.2136,0.9851,-1.2563
1.333737,-1.8620,0.2641,-0.6195,1.2136,0.9851,-1.2563
1.334261,-1.8620,0.2641,-0.6195,1.2136,0.9851,-1.2563
1.334588,-1.8620,0.2641,-0.6195,1.2086,0.9582,-1.2515
1.335086,-1.9000,0.2606,-0.6320,1.2086,0.9582,-1.2515
1.337910,-1.9000,0.2606,-0.6320,1.2086,0.9582,-1.2515
1.338555,-1.9000,0.2606,-0.6320,1.2001,0.9228,-1.2478
1.339273,-1.9291,0.3290,-0.6607,1.2001,0.9228,-1.2478
1.339892,-1.9291,0.3290,-0.6607,1.2001,0.9228,-1.2478
1.340303,-1.9291,0.3290,-0.6607,1.1855,0.8849,-1.2393
1.340945,-1.9721,0.3882,-0.7029,1.1855,0.8849,-1.2393
1.341617,-1.9721,0.3882,-0.7029,1.1855,0.8849,-1.2393
1.342035,-1.9721,0.3882,-0.7029,1.1659,0.8507,-1.2295
1.342523,-1.9768,0.4958,-0.7960,1.1659,0.8507,-1.2295
1.343111,-1.9768,0.4958,-0.7960,1.1659,0.8507,-1.2295
1.343479,-1.9768,0.4958,-0.7960,1.1439,0.8177,-1.2210
1.344013,-2.0686,0.5514,-0.7985,1.1439,0.8177,-1.2210
1.348938,-2.0686,0.5514,-0.7985,1.1439,0.8177,-1.2210
1.349212,-2.0686,0.5514,-0.7985,1.1195,0.7810,-1.2063
1.349657,-2.1546,0.6020,-0.7507,1.1195,0.7810,-1.2063
1.350100,-2.1546,0.6020,-0.7507,1.1195,0.7810,-1.2063
1.350338,-2.1546,0.6020,-0.7507,1.0926,0.7371,-1.1880
1.350671,-2.2530,0.6454,-0.6965,1.0926,0.7371,-1.1880
1.351042,-2.2530,0.6454,-0.6965,1.0926,0.7371,-1.1880
1.351266,-2.2530,0.6454,-0.6965,1.0682,0.6919,-1.1635
1.351613,-2.4044,0.7125,-0.6701,1.0682,0.6919,-1.1635
1.353654,-2.4044,0.7125,-0.6701,1.0682,0.6919,-1.1635
1.354048,-2.4044,0.7125,-0.6701,1.0450,0.6467,-1.1367
1.354508,-2.5471,0.7913,-0.5846,1.0450,0.6467,-1.1367
1.355272,-2.5471,0.7913,-0.5846,1.0450,0.6467,-1.1367
1.355544,-2.5471,0.7913,-0.5846,1.0242,0.5979,-1.1025
1.355909,-2.6247,0.8856,-0.5208,1.0242,0.5979,-1.1025
1.362000,-2.6247,0.8856,-0.5208,1.0242,0.5979,-1.1025
1.362402,-2.6247,0.8856,-0.5208,1.0047,0.5514,-1.0682
1.362817,-2.6907,0.9422,-0.4111,1.0047,0.5514,-1.0682
1.363247,-2.7337,1.0572,-0.2770,1.0047,0.5514,-1.0682
1.363761,-2.7337,1.0572,-0.2770,1.0047,0.5514,-1.0682
1.364350,-2.7337,1.0572,-0.2770,0.9888,0.5050,-1.0280
1.364912,-2.7337,1.0572,-0.2770,0.9888,0.5050,-1.0280
1.365394,-2.7337,1.0572,-0.2770,0.9765,0.4573,-0.9912
1.365997,-2.7602,1.0666,-0.1452,0.9765,0.4573,-0.9912
1.366612,-2.7602,1.0666,-0.1452,0.9765,0.4573,-0.9912
1.367002,-2.7602,1.0666,-0.1452,0.9692,0.4146,-0.9547
1.367569,-2.7106,1.1014,-0.0321,0.9692,0.4146,-0.9547
1.368174,-2.7106,1.1014,-0.0321,0.9692,0.4146,-0.9547
1.368568,-2.7106,1.1014,-0.0321,0.9680,0.3778,-0.9167
1.369105,-2.6468,1.1084,0.0880,0.9680,0.3778,-0.9167
1.369793,-2.6468,1.1084,0.0880,0.9680,0.3778,-0.9167
1.370225,-2.6468,1.1084,0.0880,0.9729,0.3473,-0.8801
1.370824,-2.5348,1.1633,0.2322,0.9729,0.3473,-0.8801
1.371424,-2.5348,1.1633,0.2322,0.9729,0.3473,-0.8801
1.371843,-2.5348,1.1633,0.2322,0.9802,0.3253,-0.8459
1.372345,-2.4766,1.1437,0.3545,0.9802,0.3253,-0.8459
1.378899,-2.4766,1.1437,0.3545,0.9802,0.3253,-0.8459
1.379240,-2.4766,1.1437,0.3545,0.9973,0.3108,-0.8141
1.379616,-2.3543,1.1461,0.4771,0.9973,0.3108,-0.8141
1.380053,-2.3543,1.1461,0.4771,0.9973,0.3108,-0.8141
1.380308,-2.3543,1.1461,0.4771,1.0180,0.2973,-0.7824
1.380659,-2.2674,1.1697,0.5827,1.0180,0.2973,-0.7824
1.381039,-2.2674,1.1697,0.5827,1.0180,0.2973,-0.7824
1.381317,-2.2674,1.1697,0.5827,1.0388,0.2826,-0.7519
1.381707,-2.1807,1.0638,0.7097,1.0388,0.2826,-0.7519
1.382140,-2.1807,1.0638,0.7097,1.0388,0.2826,-0.7519
1.382417,-2.1807,1.0638,0.7097,1.0670,0.2680,-0.7189
1.382742,-2.0562,0.8877,0.8087,1.0670,0.2680,-0.7189
1.383093,-2.0562,0.8877,0.8087,1.0670,0.2680,-0.7189
1.383314,-2.0562,0.8877,0.8087,1.0950,0.2520,-0.6894
1.383581,-1.9457,0.7758,0.8759,1.0950,0.2520,-0.6894
1.385937,-1.9457,0.7758,0.8759,1.0950,0.2520,-0.6894
1.386461,-1.9457,0.7758,0.8759,1.1280,0.2362,-0.6651
1.387101,-1.7443,0.6436,0.9629,1.1280,0.2362,-0.6651
1.388609,-1.7443,0.6436,0.9629,1.1280,0.2362,-0.6651
1.388898,-1.7443,0.6436,0.9629,1.1598,0.2240,-0.6467
1.389243,-1.5432,0.5428,1.0550,1.1598,0.2240,-0.6467
1.391205,-1.5432,0.5428,1.0550,1.1598,0.2240,-0.6467
1.391726,-1.5432,0.5428,1.0550,1.1916,0.2105,-0.6346
1.392445,-1.3403,0.3990,1.1071,1.1916,0.2105,-0.6346
1.392921,-1.3403,0.3990,1.1071,1.1916,0.2105,-0.6346
1.393169,-1.3403,0.3990,1.1071,1.2233,0.1959,-0.6309
1.393534,-1.1742,0.2741,1.2340,1.2233,0.1959,-0.6309
1.395142,-1.1742,0.2741,1.2340,1.2233,0.1959,-0.6309
1.395570,-1.1742,0.2741,1.2340,1.2563,0.1787,-0.6309
1.396198,-1.0795,0.1872,1.3490,1.2563,0.1787,-0.6309
1.398166,-1.0795,0.1872,1.3490,1.2563,0.1787,-0.6309
1.398672,-1.0795,0.1872,1.3490,1.2893,0.1567,-0.6346
1.399312,-0.9765,0.1272,1.4838,1.2893,0.1567,-0.6346
1.399993,-0.9765,0.1272,1.4838,1.2893,0.1567,-0.6346
1.400525,-0.9765,0.1272,1.4838,1.3199,0.1324,-0.6381
1.401091,-0.9048,0.1379,1.5653,1.3199,0.1324,-0.6381
1.403047,-0.9048,0.1379,1.5653,1.3199,0.1324,-0.6381
1.403385,-0.9048,0.1379,1.5653,1.3541,0.1104,-0.6418
1.403844,-0.8865,0.1582,1.6619,1.3541,0.1104,-0.6418
1.405020,-0.8865,0.1582,1.6619,1.3541,0.1104,-0.6418
1.405420,-0.8865,0.1582,1.6619,1.3882,0.0884,-0.6456
1.405952,-0.8656,0.1474,1.7297,1.3882,0.0884,-0.6456
1.408168,-0.8656,0.1474,1.7297,1.3882,0.0884,-0.6456
1.408862,-0.8656,0.1474,1.7297,1.4249,0.0652,-0.6468
1.409664,-0.7878,0.1859,1.7671,1.4249,0.0652,-0.6468
1.410324,-0.7878,0.1859,1.7671,1.4249,0.0652,-0.6468
1.410669,-0.7878,0.1859,1.7671,1.4591,0.0407,-0.6468
1.411094,-0.7074,0.2360,1.6973,1.4591,0.0407,-0.6468
1.411571,-0.7074,0.2360,1.6973,1.4591,0.0407,-0.6468
1.411937,-0.7074,0.2360,1.6973,1.4934,0.0187,-0.6479
1.412335,-0.5585,0.2495,1.6103,1.4934,0.0187,-0.6479
1.415401,-0.5585,0.2495,1.6103,1.4934,0.0187,-0.6479
1.415802,-0.5585,0.2495,1.6103,1.5275,0.0004,-0.6541
1.416295,-0.2592,0.3719,1.5052,1.5275,0.0004,-0.6541
1.416903,-0.2592,0.3719,1.5052,1.5275,0.0004,-0.6541
1.417347,-0.2592,0.3719,1.5052,1.5592,-0.0106,-0.6736
1.417919,0.6706,1.0183,1.3081,1.5592,-0.0106,-0.6736
1.419726,0.6706,1.0183,1.3081,1.5592,-0.0106,-0.6736
1.420110,0.6706,1.0183,1.3081,1.5850,-0.0033,-0.7224
1.420673,1.0150,1.0157,1.0745,1.5850,-0.0033,-0.7224
1.421232,1.0150,1.0157,1.0745,1.5850,-0.0033,-0.7224
1.421759,1.0150,1.0157,1.0745,1.6070,0.0016,-0.7689
1.422364,0.2002,0.7891,0.8653,1.6070,0.0016,-0.7689
1.427022,0.2002,0.7891,0.8653,1.6070,0.0016,-0.7689
1.427668,0.2002,0.7891,0.8653,1.6290,-0.0045,-0.7934
1.428374,-0.3963,0.3993,0.6927,1.6290,-0.0045,-0.7934
1.429042,-0.3963,0.3993,0.6927,1.6290,-0.0045,-0.7934
1.429641,-0.3963,0.3993,0.6927,1.6435,-0.0203,-0.7994
1.430228,-0.7108,0.1694,0.5142,1.6435,-0.0203,-0.7994
1.430940,-0.7108,0.1694,0.5142,1.6435,-0.0203,-0.7994
1.431356,-0.7108,0.1694,0.5142,1.6545,-0.0436,-0.7921
1.431873,-0.9868,0.0425,0.2581,1.6545,-0.0436,-0.7921
1.432529,-0.9868,0.0425,0.2581,1.6545,-0.0436,-0.7921
1.432844,-0.9868,0.0425,0.2581,1.6595,-0.0741,-0.7811
1.433204,-0.9252,0.0953,0.0298,1.6595,-0.0741,-0.7811
1.433653,-0.9252,0.0953,0.0298,1.6595,-0.0741,-0.7811
1.433915,-0.9252,0.0953,0.0298,1.6558,-0.1011,-0.7677
1.434220,-0.9042,0.2318,-0.2065,1.6558,-0.1011,-0.7677
1.441662,-0.9042,0.2318,-0.2065,1.6558,-0.1011,-0.7677
1.442399,-0.9042,0.2318,-0.2065,1.6460,-0.1181,-0.7616
1.443653,-0.7760,0.4334,-0.5577,1.6460,-0.1181,-0.7616
1.444867,-0.7760,0.4334,-0.5577,1.6460,-0.1181,-0.7616
1.445545,-0.7760,0.4334,-0.5577,1.6314,-0.1229,-0.7616
1.446201,-0.4732,0.6772,-0.7307,1.6314,-0.1229,-0.7616
1.447299,-0.4732,0.6772,-0.7307,1.6314,-0.1229,-0.7616
1.447744,-0.4732,0.6772,-0.7307,1.6082,-0.1254,-0.7701
1.448286,-0.3316,0.8857,-0.8939,1.6082,-0.1254,-0.7701
1.448889,-0.3316,0.8857,-0.8939,1.6082,-0.1254,-0.7701
1.449372,-0.3316,0.8857,-0.8939,1.5825,-0.1291,-0.7824
1.449900,-0.2608,1.1149,-1.0176,1.5825,-0.1291,-0.7824
1.450446,-0.2608,1.1149,-1.0176,1.5825,-0.1291,-0.7824
1.450860,-0.2608,1.1149,-1.0176,1.5569,-0.1339,-0.7934
1.451384,-0.1767,1.2637,-1.1344,1.5569,-0.1339,-0.7934
1.451777,-0.1767,1.2637,-1.1344,1.5569,-0.1339,-0.7934
1.452094,-0.1767,1.2637,-1.1344,1.5300,-0.1414,-0.8056
1.452512,-0.2457,1.3936,-1.2438,1.5300,-0.1414,-0.8056
1.452966,-0.2457,1.3936,-1.2438,1.5300,-0.1414,-0.8056
1.453350,-0.2457,1.3936,-1.2438,1.5031,-0.1523,-0.8154
1.453812,-0.2689,1.4669,-1.3329,1.5031,-0.1523,-0.8154
1.454296,-0.2689,1.4669,-1.3329,1.4726,-0.1669,-0.8227
1.454747,-0.2810,1.5880,-1.5016,1.4726,-0.1669,-0.8227
1.455187,-0.2810,1.5880,-1.5016,1.4726,-0.1669,-0.8227
1.455503,-0.2829,1.6720,-1.6196,1.4726,-0.1669,-0.8227
1.455979,-0.2829,1.6720,-1.6196,1.4726,-0.1669,-0.8227
1.456467,-0.2829,1.6720,-1.6196,1.4384,-0.1841,-0.8264
1.459908,-0.2829,1.6720,-1.6196,1.4384,-0.1841,-0.8264
1.460687,-0.2829,1.6720,-1.6196,1.4029,-0.2049,-0.8299
1.461509,-0.3646,1.6645,-1.7558,1.4029,-0.2049,-0.8299
1.462146,-0.3646,1.6645,-1.7558,1.4029,-0.2049,-0.8299
1.462739,-0.3646,1.6645,-1.7558,1.3639,-0.2292,-0.8312
1.463517,-0.3916,1.6934,-1.9585,1.3639,-0.2292,-0.8312
1.463967,-0.3916,1.6934,-1.9585,1.3639,-0.2292,-0.8312
1.464238,-0.3916,1.6934,-1.9585,1.3174,-0.2524,-0.8287
1.464591,-0.3250,1.7760,-2.1953,1.3174,-0.2524,-0.8287
1.464977,-0.3250,1.7760,-2.1953,1.3174,-0.2524,-0.8287
1.465201,-0.3250,1.7760,-2.1953,1.2722,-0.2707,-0.8312
1.465609,-0.2759,1.8783,-2.3268,1.2722,-0.2707,-0.8312
1.465978,-0.2759,1.8783,-2.3268,1.2722,-0.2707,-0.8312
1.466216,-0.2759,1.8783,-2.3268,1.2184,-0.2879,-0.8312
1.466496,-0.3379,1.9398,-2.3808,1.2184,-0.2879,-0.8312
1.471212,-0.3379,1.9398,-2.3808,1.2184,-0.2879,-0.8312
1.471523,-0.3379,1.9398,-2.3808,1.1683,-0.3087,-0.8287
1.471883,-0.3700,1.9978,-2.4005,1.1683,-0.3087,-0.8287
1.472291,-0.3700,1.9978,-2.4005,1.1683,-0.3087,-0.8287
1.472524,-0.3700,1.9978,-2.4005,1.1183,-0.3270,-0.8264
1.472908,-0.3364,2.1012,-2.4400,1.1183,-0.3270,-0.8264
1.473475,-0.3364,2.1012,-2.4400,1.1183,-0.3270,-0.8264
1.473837,-0.3364,2.1012,-2.4400,1.0693,-0.3355,-0.8214
1.474159,-0.3380,2.1968,-2.4403,1.0693,-0.3355,-0.8214
1.476092,-0.3380,2.1968,-2.4403,1.0693,-0.3355,-0.8214
1.476526,-0.3380,2.1968,-2.4403,1.0255,-0.3392,-0.8141
1.477011,-0.2447,2.2770,-2.5101,1.0255,-0.3392,-0.8141
1.477632,-0.2447,2.2770,-2.5101,1.0255,-0.3392,-0.8141
1.477871,-0.2447,2.2770,-2.5101,0.9827,-0.3319,-0.8044
1.478307,-0.1984,2.3504,-2.6314,0.9827,-0.3319,-0.8044
1.480303,-0.1984,2.3504,-2.6314,0.9827,-0.3319,-0.8044
1.480667,-0.1984,2.3504,-2.6314,0.9423,-0.3136,-0.7897
1.481443,-0.1360,2.3691,-2.6470,0.9423,-0.3136,-0.7897
1.483193,-0.1360,2.3691,-2.6470,0.9423,-0.3136,-0.7897
1.483665,-0.1360,2.3691,-2.6470,0.9057,-0.2927,-0.7749
1.484312,-0.0872,2.3690,-2.5810,0.9057,-0.2927,-0.7749
1.485053,-0.0872,2.3690,-2.5810,0.9057,-0.2927,-0.7749
1.485547,-0.0872,2.3690,-2.5810,0.8740,-0.2647,-0.7579
1.485831,-0.0172,2.5137,-2.4893,0.8740,-0.2647,-0.7579
1.487358,-0.0172,2.5137,-2.4893,0.8740,-0.2647,-0.7579
1.487924,-0.0172,2.5137,-2.4893,0.8482,-0.2329,-0.7396
1.488533,-0.0913,2.5854,-2.4119,0.8482,-0.2329,-0.7396
1.491040,-0.0913,2.5854,-2.4119,0.8482,-0.2329,-0.7396
1.491381,-0.0913,2.5854,-2.4119,0.8262,-0.1939,-0.7176
1.491752,-0.1846,2.5786,-2.4432,0.8262,-0.1939,-0.7176
1.492175,-0.1846,2.5786,-2.4432,0.8262,-0.1939,-0.7176
1.492420,-0.1846,2.5786,-2.4432,0.7982,-0.1389,-0.6969
1.492756,-0.0115,2.6312,-2.6676,0.7982,-0.1389,-0.6969
1.495267,-0.0115,2.6312,-2.6676,0.7982,-0.1389,-0.6969
1.495600,-0.0115,2.6312,-2.6676,0.7604,-0.0473,-0.6894
1.495960,0.1195,2.7363,-2.9432,0.7604,-0.0473,-0.6894
1.497229,0.1195,2.7363,-2.9432,0.7604,-0.0473,-0.6894
1.497767,0.1195,2.7363,-2.9432,0.7139,0.0395,-0.6834
1.498484,-0.0053,2.6047,-2.8954,0.7139,0.0395,-0.6834
1.499236,-0.0053,2.6047,-2.8954,0.7139,0.0395,-0.6834
1.499626,-0.0053,2.6047,-2.8954,0.6687,0.1067,-0.6736
1.499988,-0.1520,2.5281,-2.8887,0.6687,0.1067,-0.6736
1.502032,-0.1520,2.5281,-2.8887,0.6687,0.1067,-0.6736
1.502489,-0.1520,2.5281,-2.8887,0.6259,0.1665,-0.6589
1.503152,-0.2476,2.4277,-2.9473,0.6259,0.1665,-0.6589
1.503753,-0.2476,2.4277,-2.9473,0.6259,0.1665,-0.6589
1.504058,-0.2476,2.4277,-2.9473,0.5856,0.2252,-0.6394
1.504491,-0.1914,2.3367,-2.9613,0.5856,0.2252,-0.6394
1.507990,-0.1914,2.3367,-2.9613,0.5856,0.2252,-0.6394
1.508577,-0.1914,2.3367,-2.9613,0.5453,0.2826,-0.6198
1.509069,-0.2042,2.2676,-2.9378,0.5453,0.2826,-0.6198
1.509693,-0.2042,2.2676,-2.9378,0.5453,0.2826,-0.6198
1.510005,-0.2042,2.2676,-2.9378,0.5099,0.3340,-0.5991
1.510419,-0.0766,2.2588,-2.8493,0.5099,0.3340,-0.5991
1.512106,-0.0766,2.2588,-2.8493,0.5099,0.3340,-0.5991
1.512458,-0.0766,2.2588,-2.8493,0.4781,0.3778,-0.5831
1.512877,0.5787,2.5433,-2.5658,0.4781,0.3778,-0.5831
1.513414,0.5787,2.5433,-2.5658,0.4781,0.3778,-0.5831
1.513710,0.5787,2.5433,-2.5658,0.4561,0.4206,-0.5844
1.514123,0.9110,2.6542,-2.3998,0.4561,0.4206,-0.5844
1.516280,0.9110,2.6542,-2.3998,0.4561,0.4206,-0.5844
1.516618,0.9110,2.6542,-2.3998,0.4329,0.4634,-0.5930
1.517078,0.9738,2.6807,-2.5657,0.4329,0.4634,-0.5930
1.518887,0.9738,2.6807,-2.5657,0.4329,0.4634,-0.5930
1.519339,0.9738,2.6807,-2.5657,0.4048,0.5123,-0.6028
1.519797,0.9408,2.7144,-2.5905,0.4048,0.5123,-0.6028
1.520865,0.9408,2.7144,-2.5905,0.4048,0.5123,-0.6028
1.521182,0.9408,2.7144,-2.5905,0.3791,0.5661,-0.6174
1.521739,1.0012,2.7699,-2.6772,0.3791,0.5661,-0.6174
1.523722,1.0012,2.7699,-2.6772,0.3791,0.5661,-0.6174
1.524444,1.0012,2.7699,-2.6772,0.3473,0.6247,-0.6346
1.524933,0.9091,2.7708,-2.7533,0.3473,0.6247,-0.6346
1.525664,0.9091,2.7708,-2.7533,0.3473,0.6247,-0.6346
1.525992,0.9091,2.7708,-2.7533,0.3132,0.6882,-0.6528
1.526460,0.9253,2.7994,-2.8340,0.3132,0.6882,-0.6528
1.528720,0.9253,2.7994,-2.8340,0.3132,0.6882,-0.6528
1.529163,0.9253,2.7994,-2.8340,0.2753,0.7554,-0.6736
1.529649,0.8151,2.7418,-2.9161,0.2753,0.7554,-0.6736
1.530304,0.8151,2.7418,-2.9161,0.2753,0.7554,-0.6736
1.530710,0.8151,2.7418,-2.9161,0.2350,0.8239,-0.6944
1.531199,0.8222,2.7189,-2.9795,0.2350,0.8239,-0.6944
1.533063,0.8222,2.7189,-2.9795,0.2350,0.8239,-0.6944
1.533500,0.8222,2.7189,-2.9795,0.1898,0.8910,-0.7164
1.534057,0.9306,2.6899,-3.0202,0.1898,0.8910,-0.7164
1.534668,0.9306,2.6899,-3.0202,0.1898,0.8910,-0.7164
1.535031,0.9306,2.6899,-3.0202,0.1409,0.9582,-0.7396
1.535454,0.9644,2.6678,-3.0373,0.1409,0.9582,-0.7396
1.537712,0.9644,2.6678,-3.0373,0.1409,0.9582,-0.7396
1.538219,0.9644,2.6678,-3.0373,0.0859,1.0278,-0.7664
1.538927,1.0614,2.7057,-3.1277,0.0859,1.0278,-0.7664
1.539657,1.0614,2.7057,-3.1277,0.0859,1.0278,-0.7664
1.540092,1.0614,2.7057,-3.1277,0.0297,1.0865,-0.7934
1.540518,1.1416,2.7008,-3.0863,0.0297,1.0865,-0.7934
1.543170,1.1416,2.7008,-3.0863,0.0297,1.0865,-0.7934
1.543841,1.1416,2.7008,-3.0863,-0.0289,1.1341,-0.8227
1.544265,1.3387,2.5579,-2.9064,-0.0289,1.1341,-0.8227
1.544955,1.3387,2.5579,-2.9064,-0.0289,1.1341,-0.8227
1.545478,1.3387,2.5579,-2.9064,-0.0901,1.1659,-0.8605
1.545993,1.3035,2.5292,-2.8343,-0.0901,1.1659,-0.8605
1.546622,1.3035,2.5292,-2.8343,-0.0901,1.1659,-0.8605
1.547017,1.3035,2.5292,-2.8343,-0.1486,1.1891,-0.8972
1.547494,1.2299,2.4808,-2.7529,-0.1486,1.1891,-0.8972
1.551118,1.2299,2.4808,-2.7529,-0.1486,1.1891,-0.8972
1.551563,1.2299,2.4808,-2.7529,-0.2097,1.2099,-0.9362
1.551933,1.0722,2.4225,-2.6752,-0.2097,1.2099,-0.9362
1.552557,1.0722,2.4225,-2.6752,-0.2097,1.2099,-0.9362
1.552948,1.0722,2.4225,-2.6752,-0.2672,1.2270,-0.9778
1.553643,0.9789,2.3253,-2.5505,-0.2672,1.2270,-0.9778
1.554289,0.9789,2.3253,-2.5505,-0.2672,1.2270,-0.9778
1.554736,0.9789,2.3253,-2.5505,-0.3234,1.2441,-1.0267
1.555409,0.9301,2.1465,-2.4135,-0.3234,1.2441,-1.0267
1.565066,0.9301,2.1465,-2.4135,-0.3234,1.2441,-1.0267
1.565706,0.9301,2.1465,-2.4135,-0.3759,1.2576,-1.0780
1.566399,0.9045,2.0010,-2.2028,-0.3759,1.2576,-1.0780
1.567466,0.7746,1.7640,-1.9849,-0.3759,1.2576,-1.0780
1.568200,0.7746,1.7640,-1.9849,-0.3759,1.2576,-1.0780
1.568601,0.7746,1.7640,-1.9849,-0.4235,1.2710,-1.1330
1.568957,0.7225,1.4580,-1.7629,-0.4235,1.2710,-1.1330
1.569405,0.7225,1.4580,-1.7629,-0.4638,1.2771,-1.1855
1.569830,0.7225,1.4580,-1.7629,-0.4638,1.2771,-1.1855
1.570131,0.7225,1.4580,-1.7629,-0.4638,1.2771,-1.1855
1.570377,0.7225,1.4580,-1.7629,-0.4980,1.2796,-1.2356
1.570754,0.5060,1.1012,-1.5351,-0.4980,1.2796,-1.2356
1.571147,0.5060,1.1012,-1.5351,-0.4980,1.2796,-1.2356
1.571389,0.5060,1.1012,-1.5351,-0.5262,1.2698,-1.2796
1.571713,0.2840,0.7285,-1.2224,-0.5262,1.2698,-1.2796
1.572123,0.2840,0.7285,-1.2224,-0.5262,1.2698,-1.2796
1.572381,0.2840,0.7285,-1.2224,-0.5445,1.2392,-1.3138
1.572740,0.2020,0.5036,-0.9364,-0.5445,1.2392,-1.3138
1.573084,0.2020,0.5036,-0.9364,-0.5445,1.2392,-1.3138
1.573383,0.2020,0.5036,-0.9364,-0.5591,1.1928,-1.3419
1.573746,0.1649,0.1911,-0.7292,-0.5591,1.1928,-1.3419
1.579261,0.1649,0.1911,-0.7292,-0.5591,1.1928,-1.3419
1.579683,0.1649,0.1911,-0.7292,-0.5690,1.1305,-1.3663
1.580149,0.3373,0.1689,-0.4534,-0.5690,1.1305,-1.3663
1.580551,0.5662,0.2029,-0.3055,-0.5690,1.1305,-1.3663
1.580932,0.5662,0.2029,-0.3055,-0.5690,1.1305,-1.3663
1.581177,0.5662,0.2029,-0.3055,-0.5713,1.0510,-1.3931
1.581583,0.5662,0.2029,-0.3055,-0.5713,1.0510,-1.3931
1.581870,0.5662,0.2029,-0.3055,-0.5701,0.9655,-1.4189
1.582238,0.4750,0.1905,-0.1385,-0.5701,0.9655,-1.4189
1.582570,0.4750,0.1905,-0.1385,-0.5701,0.9655,-1.4189
1.582796,0.4750,0.1905,-0.1385,-0.5653,0.8764,-1.4421
1.583097,0.3494,0.2038,-0.0176,-0.5653,0.8764,-1.4421
1.583419,0.3494,0.2038,-0.0176,-0.5653,0.8764,-1.4421
1.583650,0.3494,0.2038,-0.0176,-0.5580,0.7835,-1.4567
1.583954,0.2178,0.1817,0.0374,-0.5580,0.7835,-1.4567
1.584315,0.2178,0.1817,0.0374,-0.5580,0.7835,-1.4567
1.584532,0.2178,0.1817,0.0374,-0.5505,0.6882,-1.4701
1.584833,0.1584,0.2091,0.0855,-0.5505,0.6882,-1.4701
1.587094,0.1584,0.2091,0.0855,-0.5505,0.6882,-1.4701
1.587401,0.1584,0.2091,0.0855,-0.5420,0.5831,-1.4799
1.587732,0.0306,0.2336,0.0799,-0.5420,0.5831,-1.4799
1.590346,0.0306,0.2336,0.0799,-0.5420,0.5831,-1.4799
1.590993,0.0306,0.2336,0.0799,-0.5335,0.4756,-1.4849
1.591787,-0.0116,0.2550,0.0054,-0.5335,0.4756,-1.4849
1.592505,-0.0116,0.2550,0.0054,-0.5335,0.4756,-1.4849
1.592966,-0.0116,0.2550,0.0054,-0.5237,0.3755,-1.4849
1.593556,-0.0909,0.2856,-0.0618,-0.5237,0.3755,-1.4849
1.593973,-0.0909,0.2856,-0.0618,-0.5237,0.3755,-1.4849
1.594235,-0.0909,0.2856,-0.0618,-0.5152,0.2863,-1.4812
1.594640,-0.2722,0.2944,-0.1482,-0.5152,0.2863,-1.4812
1.596790,-0.2722,0.2944,-0.1482,-0.5152,0.2863,-1.4812
1.597137,-0.2722,0.2944,-0.1482,-0.5090,0.2080,-1.4714
1.597809,-0.3055,0.2617,-0.2859,-0.5090,0.2080,-1.4714
1.599144,-0.3055,0.2617,-0.2859,-0.5090,0.2080,-1.4714
1.599480,-0.3055,0.2617,-0.2859,-0.5030,0.1422,-1.4616
1.600007,-0.4071,0.2562,-0.4055,-0.5030,0.1422,-1.4616
1.601468,-0.4071,0.2562,-0.4055,-0.5030,0.1422,-1.4616
1.601866,-0.4071,0.2562,-0.4055,-0.4956,0.0896,-1.4482
1.602366,-0.4438,0.2655,-0.5103,-0.4956,0.0896,-1.4482
1.604749,-0.4438,0.2655,-0.5103,-0.4956,0.0896,-1.4482
1.605418,-0.4438,0.2655,-0.5103,-0.4883,0.0505,-1.4311
1.606070,-0.5643,0.2182,-0.5934,-0.4883,0.0505,-1.4311
1.606637,-0.5643,0.2182,-0.5934,-0.4883,0.0505,-1.4311
1.606985,-0.5643,0.2182,-0.5934,-0.4797,0.0212,-1.4103
1.607473,-0.5973,0.1979,-0.6669,-0.4797,0.0212,-1.4103
1.608019,-0.5973,0.1979,-0.6669,-0.4797,0.0212,-1.4103
1.608359,-0.5973,0.1979,-0.6669,-0.4712,0.0052,-1.3908
1.608808,-0.4529,0.2246,-0.7409,-0.4712,0.0052,-1.3908
1.614117,-0.4529,0.2246,-0.7409,-0.4712,0.0052,-1.3908
1.614587,-0.4529,0.2246,-0.7409,-0.4615,0.0052,-1.3724
1.615138,-0.2610,0.3488,-0.7527,-0.4615,0.0052,-1.3724
1.615777,-0.2610,0.3488,-0.7527,-0.4615,0.0052,-1.3724
1.616129,-0.2610,0.3488,-0.7527,-0.4517,0.0187,-1.3591
1.616534,-0.0264,0.4520,-0.7287,-0.4517,0.0187,-1.3591
1.617053,-0.0264,0.4520,-0.7287,-0.4517,0.0187,-1.3591
1.617468,-0.0264,0.4520,-0.7287,-0.4394,0.0407,-1.3431
1.617875,0.2035,0.5840,-0.6928,-0.4394,0.0407,-1.3431
1.618293,0.2035,0.5840,-0.6928,-0.4394,0.0407,-1.3431
1.618587,0.2035,0.5840,-0.6928,-0.4272,0.0762,-1.3284
1.618974,0.3623,0.6537,-0.5981,-0.4272,0.0762,-1.3284
1.620970,0.3623,0.6537,-0.5981,-0.4272,0.0762,-1.3284
1.621363,0.3623,0.6537,-0.5981,-0.4113,0.1116,-1.3138
1.621829,0.4125,0.7267,-0.4318,-0.4113,0.1116,-1.3138
1.624337,0.4125,0.7267,-0.4318,-0.4113,0.1116,-1.3138
1.625112,0.4125,0.7267,-0.4318,-0.3942,0.1422,-1.2991
1.625904,0.4850,0.7154,-0.3107,-0.3942,0.1422,-1.2991
1.626636,0.4850,0.7154,-0.3107,-0.3942,0.1422,-1.2991
1.626963,0.4850,0.7154,-0.3107,-0.3722,0.1653,-1.2845
1.627472,0.5336,0.6945,-0.2219,-0.3722,0.1653,-1.2845
1.628010,0.5336,0.6945,-0.2219,-0.3722,0.1653,-1.2845
1.628319,0.5336,0.6945,-0.2219,-0.3477,0.1873,-1.2649
1.628747,0.5991,0.5704,-0.1253,-0.3477,0.1873,-1.2649
1.629244,0.5991,0.5704,-0.1253,-0.3477,0.1873,-1.2649
1.629631,0.5991,0.5704,-0.1253,-0.3209,0.1947,-1.2429
1.630061,0.5704,0.4407,0.0362,-0.3209,0.1947,-1.2429
1.632802,0.5704,0.4407,0.0362,-0.3209,0.1947,-1.2429
1.633112,0.5704,0.4407,0.0362,-0.2927,0.1970,-1.2185
1.633557,0.5547,0.3345,0.1189,-0.2927,0.1970,-1.2185
1.634006,0.5547,0.3345,0.1189,-0.2927,0.1970,-1.2185
1.634308,0.5547,0.3345,0.1189,-0.2586,0.1947,-1.1903
1.634672,0.5712,0.2000,0.2639,-0.2586,0.1947,-1.1903
1.637218,0.5712,0.2000,0.2639,-0.2586,0.1947,-1.1903
1.637902,0.5712,0.2000,0.2639,-0.2207,0.1885,-1.1623
1.638732,0.6132,0.1836,0.4407,-0.2207,0.1885,-1.1623
1.639455,0.6132,0.1836,0.4407,-0.2207,0.1885,-1.1623
1.639953,0.6132,0.1836,0.4407,-0.1804,0.1862,-1.1355
1.640613,0.6377,0.1496,0.5484,-0.1804,0.1862,-1.1355
1.645446,0.6377,0.1496,0.5484,-0.1804,0.1862,-1.1355
1.645893,0.6377,0.1496,0.5484,-0.1364,0.1910,-1.1061
1.646414,0.6833,0.1365,0.7192,-0.1364,0.1910,-1.1061
1.646914,0.6833,0.1365,0.7192,-0.1364,0.1910,-1.1061
1.647205,0.6833,0.1365,0.7192,-0.0876,0.2069,-1.0817
1.647574,0.7312,0.1514,0.8790,-0.0876,0.2069,-1.0817
1.648079,0.7312,0.1514,0.8790,-0.0876,0.2069,-1.0817
1.648405,0.7312,0.1514,0.8790,-0.0363,0.2362,-1.0585
1.648821,0.7308,0.1431,1.0491,-0.0363,0.2362,-1.0585
1.649365,0.7308,0.1431,1.0491,-0.0363,0.2362,-1.0585
1.649698,0.7308,0.1431,1.0491,0.0199,0.2815,-1.0401
1.650097,0.8224,0.1905,1.2296,0.0199,0.2815,-1.0401
1.651910,0.8224,0.1905,1.2296,0.0199,0.2815,-1.0401
1.652205,0.8224,0.1905,1.2296,0.0774,0.3340,-1.0280
1.652492,0.9218,0.2349,1.3722,0.0774,0.3340,-1.0280
1.652997,0.9218,0.2349,1.3722,0.0774,0.3340,-1.0280
1.653377,0.9218,0.2349,1.3722,0.1372,0.3926,-1.0182
1.653835,0.9166,0.2913,1.4524,0.1372,0.3926,-1.0182
1.658975,0.9166,0.2913,1.4524,0.1372,0.3926,-1.0182
1.659610,0.9166,0.2913,1.4524,0.1970,0.4536,-1.0083
1.660282,0.9282,0.3343,1.5299,0.1970,0.4536,-1.0083
1.661038,0.9282,0.3343,1.5299,0.1970,0.4536,-1.0083
1.661558,0.9282,0.3343,1.5299,0.2545,0.5184,-1.0022
1.662168,0.9392,0.3563,1.5044,0.2545,0.5184,-1.0022
1.662755,0.9392,0.3563,1.5044,0.2545,0.5184,-1.0022
1.663171,0.9392,0.3563,1.5044,0.3095,0.5819,-1.0047
1.663734,0.9993,0.3713,1.4824,0.3095,0.5819,-1.0047
1.668049,0.9993,0.3713,1.4824,0.3095,0.5819,-1.0047
1.668645,0.9993,0.3713,1.4824,0.3633,0.6431,-1.0083
1.669426,0.9644,0.4541,1.4705,0.3633,0.6431,-1.0083
1.670407,1.1003,0.5120,1.3535,0.3633,0.6431,-1.0083
1.671248,1.1003,0.5120,1.3535,0.3633,0.6431,-1.0083
1.672055,1.1003,0.5120,1.3535,0.4133,0.7041,-1.0132
1.672969,1.1003,0.5120,1.3535,0.4133,0.7041,-1.0132
1.673825,1.1003,0.5120,1.3535,0.4548,0.7677,-1.0242
1.674582,1.1572,0.5335,1.3162,0.4548,0.7677,-1.0242
1.675099,1.1572,0.5335,1.3162,0.4548,0.7677,-1.0242
1.675459,1.1572,0.5335,1.3162,0.4964,0.8337,-1.0389
1.675949,1.1675,0.6268,1.2685,0.4964,0.8337,-1.0389
1.676484,1.1675,0.6268,1.2685,0.4964,0.8337,-1.0389
1.676770,1.1675,0.6268,1.2685,0.5318,0.8960,-1.0548
1.677181,1.1379,0.6809,1.1863,0.5318,0.8960,-1.0548
1.677685,1.1379,0.6809,1.1863,0.5318,0.8960,-1.0548
1.677980,1.1379,0.6809,1.1863,0.5599,0.9582,-1.0707
1.678377,0.9921,0.7016,1.0878,0.5599,0.9582,-1.0707
1.679116,0.9921,0.7016,1.0878,0.5599,0.9582,-1.0707
1.679441,0.9921,0.7016,1.0878,0.5819,1.0108,-1.0840
1.679757,0.7525,0.7410,0.9254,0.5819,1.0108,-1.0840
1.680271,0.7525,0.7410,0.9254,0.5819,1.0108,-1.0840
1.680563,0.7525,0.7410,0.9254,0.5941,1.0596,-1.0915
1.680881,0.6436,0.7281,0.8250,0.5941,1.0596,-1.0915
1.681371,0.6436,0.7281,0.8250,0.5941,1.0596,-1.0915
1.681670,0.6436,0.7281,0.8250,0.6003,1.0988,-1.0975
1.682025,0.5034,0.6713,0.6726,0.6003,1.0988,-1.0975
1.689409,0.5034,0.6713,0.6726,0.6003,1.0988,-1.0975
1.690007,0.5034,0.6713,0.6726,0.5991,1.1318,-1.1025
1.690848,0.4637,0.5909,0.4380,0.5991,1.1318,-1.1025
1.691529,0.4637,0.5909,0.4380,0.5991,1.1318,-1.1025
1.691793,0.4637,0.5909,0.4380,0.5881,1.1683,-1.1098
1.692156,0.5103,0.5007,0.2194,0.5881,1.1683,-1.1098
1.692550,0.5103,0.5007,0.2194,0.5881,1.1683,-1.1098
1.692792,0.5103,0.5007,0.2194,0.5721,1.2013,-1.1183
1.693130,0.4061,0.3818,0.0911,0.5721,1.2013,-1.1183
1.693536,0.4061,0.3818,0.0911,0.5721,1.2013,-1.1183
1.693758,0.4061,0.3818,0.0911,0.5501,1.2233,-1.1280
1.694082,0.3209,0.2913,-0.0289,0.5501,1.2233,-1.1280
1.694381,0.3209,0.2913,-0.0289,0.5501,1.2233,-1.1280
1.694598,0.3209,0.2913,-0.0289,0.5246,1.2404,-1.1342
1.694899,0.2374,0.2236,-0.1971,0.5246,1.2404,-1.1342
1.696278,0.2374,0.2236,-0.1971,0.5246,1.2404,-1.1342
1.696511,0.2374,0.2236,-0.1971,0.4951,1.2588,-1.1403
1.696868,0.0985,0.1732,-0.3303,0.4951,1.2588,-1.1403
1.698283,0.0985,0.1732,-0.3303,0.4951,1.2588,-1.1403
1.698645,0.0985,0.1732,-0.3303,0.4623,1.2771,-1.1440
1.699091,-0.1030,0.1299,-0.3843,0.4623,1.2771,-1.1440
1.701072,-0.1030,0.1299,-0.3843,0.4623,1.2771,-1.1440
1.701360,-0.1030,0.1299,-0.3843,0.4268,1.2941,-1.1440
1.701717,-0.2791,0.1432,-0.4903,0.4268,1.2941,-1.1440
1.703074,-0.2791,0.1432,-0.4903,0.4268,1.2941,-1.1440
1.703347,-0.2791,0.1432,-0.4903,0.3889,1.3149,-1.1452
1.703885,-0.3385,0.1478,-0.5892,0.3889,1.3149,-1.1452
1.706315,-0.3385,0.1478,-0.5892,0.3889,1.3149,-1.1452
1.706776,-0.3385,0.1478,-0.5892,0.3498,1.3369,-1.1440
1.707225,-0.3479,0.1531,-0.6799,0.3498,1.3369,-1.1440
1.707670,-0.3479,0.1531,-0.6799,0.3498,1.3369,-1.1440
1.707932,-0.3479,0.1531,-0.6799,0.3108,1.3639,-1.1452
1.708177,-0.3888,0.1589,-0.8408,0.3108,1.3639,-1.1452
1.710168,-0.3888,0.1589,-0.8408,0.3108,1.3639,-1.1452
1.710498,-0.3888,0.1589,-0.8408,0.2668,1.3944,-1.1488
1.710981,-0.4621,0.2121,-0.9837,0.2668,1.3944,-1.1488
1.712749,-0.4621,0.2121,-0.9837,0.2668,1.3944,-1.1488
1.713343,-0.4621,0.2121,-0.9837,0.2227,1.4237,-1.1550
1.714067,-0.4468,0.2189,-1.0958,0.2227,1.4237,-1.1550
1.714759,-0.4468,0.2189,-1.0958,0.2227,1.4237,-1.1550
1.715030,-0.4468,0.2189,-1.0958,0.1775,1.4494,-1.1623
1.715490,-0.4998,0.2212,-1.1468,0.1775,1.4494,-1.1623
1.717685,-0.4998,0.2212,-1.1468,0.1775,1.4494,-1.1623
1.718178,-0.4998,0.2212,-1.1468,0.1299,1.4714,-1.1708
1.718841,-0.5182,0.2621,-1.2608,0.1299,1.4714,-1.1708
1.721890,-0.5182,0.2621,-1.2608,0.1299,1.4714,-1.1708
1.722314,-0.5182,0.2621,-1.2608,0.0822,1.4860,-1.1806
1.722788,-0.4399,0.3168,-1.4112,0.0822,1.4860,-1.1806
1.724896,-0.4399,0.3168,-1.4112,0.0822,1.4860,-1.1806
1.725447,-0.4399,0.3168,-1.4112,0.0334,1.5067,-1.1928
1.725934,-0.3783,0.3593,-1.5332,0.0334,1.5067,-1.1928
1.726487,-0.3783,0.3593,-1.5332,0.0334,1.5067,-1.1928
1.726784,-0.3783,0.3593,-1.5332,-0.0179,1.5214,-1.2088
1.727244,-0.1894,0.4385,-1.5778,-0.0179,1.5214,-1.2088
1.727782,-0.1894,0.4385,-1.5778,-0.0179,1.5214,-1.2088
1.728123,-0.1894,0.4385,-1.5778,-0.0656,1.5227,-1.2319
1.728617,-0.1671,0.5542,-1.5735,-0.0656,1.5227,-1.2319
1.729151,-0.1671,0.5542,-1.5735,-0.0656,1.5227,-1.2319
1.729552,-0.1671,0.5542,-1.5735,-0.1119,1.5117,-1.2526
1.730078,-0.2781,0.6612,-1.5604,-0.1119,1.5117,-1.2526
1.732241,-0.2781,0.6612,-1.5604,-0.1119,1.5117,-1.2526
1.732610,-0.2781,0.6612,-1.5604,-0.1536,1.4836,-1.2661
1.733047,-0.3705,0.7893,-1.5053,-0.1536,1.4836,-1.2661
1.733679,-0.3705,0.7893,-1.5053,-0.1536,1.4836,-1.2661
1.734033,-0.3705,0.7893,-1.5053,-0.1974,1.4409,-1.2783
1.734559,-0.2820,0.9229,-1.4692,-0.1974,1.4409,-1.2783
1.736229,-0.2820,0.9229,-1.4692,-0.1974,1.4409,-1.2783
1.736631,-0.2820,0.9229,-1.4692,-0.2366,1.3894,-1.2931
1.737174,-0.1327,1.0190,-1.4865,-0.2366,1.3894,-1.2931
1.739325,-0.1327,1.0190,-1.4865,-0.2366,1.3894,-1.2931
1.740000,-0.1327,1.0190,-1.4865,-0.2709,1.3309,-1.3076
1.740750,-0.0758,1.0596,-1.4495,-0.2709,1.3309,-1.3076
1.741567,-0.0758,1.0596,-1.4495,-0.2709,1.3309,-1.3076
1.741962,-0.0758,1.0596,-1.4495,-0.3050,1.2722,-1.3236
1.742512,0.0681,1.0419,-1.5188,-0.3050,1.2722,-1.3236
1.743053,0.0681,1.0419,-1.5188,-0.3050,1.2722,-1.3236
1.743393,0.0681,1.0419,-1.5188,-0.3404,1.2184,-1.3431
1.743787,0.2497,1.0698,-1.7404,-0.3404,1.2184,-1.3431
1.746576,0.2497,1.0698,-1.7404,-0.3404,1.2184,-1.3431
1.747054,0.2497,1.0698,-1.7404,-0.3759,1.1573,-1.3651
1.747778,0.5039,1.0866,-1.9563,-0.3759,1.1573,-1.3651
1.748318,0.5039,1.0866,-1.9563,-0.3759,1.1573,-1.3651
1.748641,0.5039,1.0866,-1.9563,-0.4137,1.1073,-1.3896
1.749126,0.8317,1.1409,-2.0737,-0.4137,1.1073,-1.3896
1.750783,0.8317,1.1409,-2.0737,-0.4137,1.1073,-1.3896
1.751117,0.8317,1.1409,-2.0737,-0.4540,1.0755,-1.4213
1.751537,1.2035,1.2280,-2.2800,-0.4540,1.0755,-1.4213
1.753450,1.2035,1.2280,-2.2800,-0.4540,1.0755,-1.4213
1.753843,1.2035,1.2280,-2.2800,-0.4945,1.0620,-1.4629
1.754323,1.5862,1.4578,-2.4783,-0.4945,1.0620,-1.4629
1.757099,1.5862,1.4578,-2.4783,-0.4945,1.0620,-1.4629
1.757738,1.5862,1.4578,-2.4783,-0.5360,1.0682,-1.5092
1.758314,1.5440,1.6024,-2.5908,-0.5360,1.0682,-1.5092
1.758920,1.5440,1.6024,-2.5908,-0.5360,1.0682,-1.5092
1.759300,1.5440,1.6024,-2.5908,-0.5775,1.0718,-1.5520
1.759793,1.0981,1.6827,-2.6632,-0.5775,1.0718,-1.5520
1.760300,1.0981,1.6827,-2.6632,-0.5775,1.0718,-1.5520
1.760676,1.0981,1.6827,-2.6632,-0.6190,1.0853,-1.5777
1.761341,0.7420,1.6586,-2.7343,-0.6190,1.0853,-1.5777
1.761990,0.7420,1.6586,-2.7343,-0.6190,1.0853,-1.5777
1.762384,0.7420,1.6586,-2.7343,-0.6581,1.1036,-1.5960
1.762870,0.5428,1.5667,-2.7442,-0.6581,1.1036,-1.5960
1.766015,0.5428,1.5667,-2.7442,-0.6581,1.1036,-1.5960
1.766434,0.5428,1.5667,-2.7442,-0.6911,1.1171,-1.6021
1.767106,0.2588,1.4690,-2.5768,-0.6911,1.1171,-1.6021
