
time,wx,wy,wz,ax,ay,az
0.003,-0.06,-0.02,0.07,0.00,0.27,-1.04
0.004,-0.06,-0.02,0.07,0.08,0.25,-0.87
0.005,-0.06,-0.02,0.07,0.14,0.23,-0.73
0.006,-0.12,-0.02,0.05,0.14,0.23,-0.73
0.008,-0.17,-0.02,0.03,0.14,0.23,-0.73
0.008,-0.17,-0.02,0.03,0.13,0.19,-0.55
0.009,-0.21,-0.00,0.02,0.13,0.19,-0.55
0.009,-0.21,-0.00,0.02,0.09,0.20,-0.37
0.011,-0.21,-0.00,0.02,0.11,0.17,-0.24
0.011,-0.23,0.02,-0.00,0.11,0.17,-0.24
0.016,-0.23,0.02,-0.00,0.12,0.17,-0.16
0.018,-0.25,0.03,-0.02,0.12,0.17,-0.16
0.022,-0.25,0.05,-0.03,0.12,0.17,-0.16
0.023,-0.25,0.05,-0.03,0.10,0.15,-0.06
0.028,-0.25,0.07,-0.04,0.10,0.15,-0.06
0.029,-0.25,0.07,-0.04,0.06,0.15,-0.03
0.031,-0.24,0.08,-0.05,0.06,0.15,-0.03
0.031,-0.24,0.08,-0.05,0.05,0.12,0.05
0.037,-0.22,0.10,-0.05,0.05,0.12,0.05
0.038,-0.22,0.10,-0.05,-0.00,0.12,0.13
0.043,-0.20,0.10,-0.05,-0.00,0.12,0.13
0.044,-0.20,0.10,-0.05,-0.04,0.13,0.12
0.046,-0.18,0.10,-0.05,-0.04,0.13,0.12
0.047,-0.18,0.10,-0.05,-0.08,0.11,0.12
0.051,-0.15,0.10,-0.05,-0.08,0.11,0.12
0.052,-0.15,0.10,-0.05,-0.12,0.10,0.08
0.057,-0.15,0.10,-0.05,-0.14,0.11,0.09
0.058,-0.13,0.09,-0.05,-0.14,0.11,0.09
0.068,-0.13,0.09,-0.05,-0.11,0.06,0.04
0.069,-0.10,0.08,-0.04,-0.11,0.06,0.04
0.07,-0.10,0.08,-0.04,-0.06,0.03,0.01
0.07,-0.08,0.06,-0.04,-0.06,0.03,0.01
0.071,-0.08,0.06,-0.04,-0.07,0.05,-0.00
0.072,-0.06,0.05,-0.03,-0.07,0.05,-0.00
0.076,-0.06,0.05,-0.03,-0.08,0.07,-0.02
0.078,-0.04,0.04,-0.03,-0.08,0.07,-0.02
0.081,-0.02,0.02,-0.02,-0.08,0.07,-0.02
0.082,-0.02,0.02,-0.02,-0.14,0.09,-0.07
0.086,-0.01,-0.00,-0.01,-0.14,0.09,-0.07
0.087,-0.01,-0.00,-0.01,-0.14,0.10,-0.11
0.103,-0.01,-0.00,-0.01,-0.13,0.12,-0.09
0.104,0.00,-0.02,-0.00,-0.13,0.12,-0.09
0.105,0.00,-0.02,-0.00,-0.08,0.12,-0.17
0.107,0.01,-0.04,0.00,-0.08,0.12,-0.17
0.108,0.02,-0.05,0.00,-0.08,0.12,-0.17
0.109,0.02,-0.05,0.00,-0.04,0.11,-0.19
0.11,0.02,-0.05,-0.00,-0.04,0.11,-0.19
0.111,0.02,-0.05,-0.00,-0.01,0.09,-0.18
0.113,0.02,-0.06,-0.00,-0.01,0.09,-0.18
0.114,0.02,-0.06,-0.00,0.01,0.10,-0.18
0.122,0.02,-0.06,-0.00,0.00,0.12,-0.16
0.124,0.02,-0.07,-0.01,0.00,0.12,-0.16
0.125,0.02,-0.07,-0.01,0.00,0.12,-0.17
0.126,0.02,-0.08,-0.02,0.00,0.12,-0.17
0.127,0.02,-0.08,-0.02,-0.01,0.14,-0.18
0.127,0.02,-0.08,-0.02,-0.01,0.14,-0.18
0.132,0.01,-0.07,-0.02,-0.01,0.14,-0.18
0.133,0.01,-0.07,-0.02,-0.02,0.16,-0.15
0.137,0.01,-0.07,-0.02,-0.01,0.15,-0.14
0.138,0.01,-0.07,-0.02,-0.01,0.15,-0.14
0.142,0.01,-0.05,-0.02,-0.01,0.15,-0.14
0.143,0.01,-0.05,-0.02,-0.01,0.12,-0.15
0.147,0.01,-0.05,-0.02,0.00,0.12,-0.16
0.148,0.00,-0.05,-0.03,0.00,0.12,-0.16
0.152,0.00,-0.05,-0.03,0.00,0.12,-0.16
0.153,0.00,-0.05,-0.03,0.04,0.10,-0.20
0.159,0.00,-0.05,-0.03,0.05,0.08,-0.20
0.161,-0.00,-0.04,-0.03,0.05,0.08,-0.20
0.162,-0.00,-0.03,-0.04,0.05,0.08,-0.20
0.162,-0.00,-0.03,-0.04,0.06,0.09,-0.16
0.167,-0.00,-0.03,-0.04,0.06,0.09,-0.16
0.168,-0.00,-0.03,-0.04,0.04,0.11,-0.14
0.172,-0.00,-0.03,-0.04,0.04,0.08,-0.16
0.173,-0.00,-0.03,-0.04,0.04,0.08,-0.16
0.177,0.01,-0.02,-0.05,0.04,0.08,-0.16
0.178,0.01,-0.02,-0.05,0.08,0.06,-0.19
0.182,0.01,-0.02,-0.06,0.08,0.06,-0.19
0.183,0.01,-0.02,-0.06,0.06,0.07,-0.17
0.187,0.02,-0.02,-0.06,0.06,0.07,-0.17
0.188,0.02,-0.02,-0.06,0.05,0.08,-0.19
0.192,0.03,-0.03,-0.06,0.05,0.08,-0.19
0.194,0.03,-0.03,-0.06,0.01,0.07,-0.12
0.198,0.04,-0.04,-0.07,0.01,0.07,-0.12
0.199,0.04,-0.04,-0.07,0.02,0.07,-0.09
0.202,0.04,-0.04,-0.07,0.02,0.07,-0.08
0.203,0.05,-0.05,-0.08,0.02,0.07,-0.08
0.219,0.07,-0.07,-0.08,0.02,0.07,-0.08
0.22,0.07,-0.07,-0.08,-0.01,0.05,-0.03
0.221,0.07,-0.07,-0.08,0.02,0.02,-0.01
0.222,0.08,-0.08,-0.09,0.02,0.02,-0.01
0.223,0.08,-0.08,-0.09,0.06,0.04,-0.07
0.224,0.09,-0.09,-0.10,0.06,0.04,-0.07
0.225,0.09,-0.10,-0.11,0.06,0.04,-0.07
0.226,0.09,-0.10,-0.11,0.06,-0.00,-0.06
0.228,0.09,-0.10,-0.12,0.06,-0.00,-0.06
0.23,0.09,-0.10,-0.12,0.01,-0.00,-0.10
0.241,0.09,-0.10,-0.12,-0.03,0.00,-0.12
0.243,0.09,-0.11,-0.12,-0.03,0.00,-0.12
0.244,0.09,-0.11,-0.12,-0.05,-0.04,-0.16
0.245,0.08,-0.11,-0.13,-0.05,-0.04,-0.16
0.279,0.07,-0.12,-0.13,-0.05,-0.04,-0.16
0.28,0.07,-0.12,-0.13,-0.09,-0.02,-0.17
0.281,0.05,-0.12,-0.12,-0.09,-0.02,-0.17
0.282,0.05,-0.12,-0.12,-0.13,-0.06,-0.16
0.283,0.05,-0.12,-0.12,-0.12,-0.08,-0.16
0.284,0.04,-0.11,-0.11,-0.12,-0.08,-0.16
0.285,0.02,-0.11,-0.11,-0.12,-0.08,-0.16
0.286,0.02,-0.11,-0.11,-0.15,-0.07,-0.15
0.287,0.01,-0.11,-0.10,-0.15,-0.07,-0.15
0.288,0.01,-0.11,-0.10,-0.16,-0.07,-0.13
0.289,0.01,-0.12,-0.09,-0.16,-0.07,-0.13
0.29,0.01,-0.12,-0.09,-0.13,-0.09,-0.11
0.291,-0.00,-0.12,-0.08,-0.13,-0.09,-0.11
0.292,-0.00,-0.12,-0.08,-0.10,-0.10,-0.14
0.294,-0.00,-0.12,-0.08,-0.08,-0.11,-0.15
0.295,-0.01,-0.12,-0.07,-0.08,-0.11,-0.15
0.296,-0.01,-0.12,-0.06,-0.08,-0.11,-0.15
0.298,-0.01,-0.12,-0.06,-0.06,-0.13,-0.14
0.299,-0.01,-0.12,-0.06,-0.07,-0.09,-0.11
0.3,-0.00,-0.13,-0.05,-0.07,-0.09,-0.11
0.301,-0.00,-0.13,-0.05,-0.00,-0.06,-0.16
0.303,0.01,-0.13,-0.05,-0.00,-0.06,-0.16
0.304,0.02,-0.13,-0.04,-0.00,-0.06,-0.16
0.305,0.02,-0.13,-0.04,0.03,-0.06,-0.19
0.306,0.03,-0.13,-0.04,0.03,-0.06,-0.19
0.308,0.03,-0.13,-0.04,0.07,-0.05,-0.19
0.309,0.04,-0.13,-0.05,0.07,-0.05,-0.19
0.311,0.04,-0.13,-0.05,0.10,-0.06,-0.21
0.318,0.04,-0.13,-0.06,0.10,-0.06,-0.21
0.32,0.04,-0.13,-0.06,0.12,-0.02,-0.29
0.32,0.04,-0.13,-0.06,0.10,-0.00,-0.30
0.321,0.04,-0.13,-0.07,0.10,-0.00,-0.30
0.323,0.04,-0.13,-0.08,0.10,-0.00,-0.30
0.324,0.04,-0.13,-0.08,0.10,-0.02,-0.37
0.328,0.04,-0.13,-0.08,0.08,0.02,-0.41
0.329,0.04,-0.13,-0.09,0.08,0.02,-0.41
0.333,0.04,-0.13,-0.09,0.05,0.01,-0.45
0.334,0.02,-0.14,-0.09,0.05,0.01,-0.45
0.338,0.02,-0.14,-0.09,0.00,0.01,-0.49
0.339,0.01,-0.15,-0.10,0.00,0.01,-0.49
0.351,0.01,-0.15,-0.10,-0.05,0.02,-0.49
0.352,-0.01,-0.16,-0.11,-0.05,0.02,-0.49
0.353,-0.01,-0.16,-0.11,-0.15,0.02,-0.45
0.353,-0.03,-0.18,-0.11,-0.15,0.02,-0.45
0.354,-0.03,-0.18,-0.11,-0.17,0.03,-0.42
0.354,-0.05,-0.20,-0.11,-0.17,0.03,-0.42
0.358,-0.05,-0.20,-0.11,-0.19,0.04,-0.36
0.36,-0.07,-0.23,-0.10,-0.19,0.04,-0.36
0.363,-0.07,-0.23,-0.10,-0.21,0.04,-0.31
0.364,-0.10,-0.25,-0.10,-0.21,0.04,-0.31
0.368,-0.11,-0.27,-0.09,-0.21,0.04,-0.31
0.369,-0.11,-0.27,-0.09,-0.18,0.04,-0.19
0.375,-0.12,-0.28,-0.09,-0.18,0.04,-0.19
0.377,-0.12,-0.28,-0.09,-0.18,0.03,-0.09
0.378,-0.13,-0.30,-0.09,-0.18,0.03,-0.09
0.379,-0.13,-0.30,-0.09,-0.19,0.08,0.01
0.383,-0.13,-0.30,-0.09,-0.18,0.10,0.18
0.384,-0.13,-0.32,-0.09,-0.18,0.10,0.18
0.388,-0.12,-0.33,-0.09,-0.18,0.10,0.18
0.389,-0.12,-0.33,-0.09,-0.17,0.10,0.22
0.393,-0.12,-0.34,-0.09,-0.17,0.10,0.22
0.395,-0.12,-0.34,-0.09,-0.19,0.10,0.30
0.4,-0.12,-0.34,-0.09,-0.21,0.10,0.36
0.401,-0.11,-0.33,-0.09,-0.21,0.10,0.36
0.404,-0.10,-0.32,-0.10,-0.21,0.10,0.36
0.405,-0.10,-0.32,-0.10,-0.15,0.10,0.47
0.41,-0.09,-0.31,-0.10,-0.15,0.10,0.47
0.411,-0.09,-0.31,-0.10,-0.14,0.10,0.52
0.414,-0.08,-0.29,-0.11,-0.14,0.10,0.52
0.415,-0.08,-0.29,-0.11,-0.18,0.10,0.58
0.419,-0.08,-0.29,-0.11,-0.18,0.09,0.60
0.42,-0.07,-0.28,-0.12,-0.18,0.09,0.60
0.426,-0.07,-0.28,-0.12,-0.16,0.15,0.60
0.427,-0.07,-0.26,-0.12,-0.16,0.15,0.60
0.429,-0.07,-0.26,-0.12,-0.21,0.18,0.57
0.43,-0.06,-0.23,-0.13,-0.21,0.18,0.57
0.434,-0.06,-0.23,-0.13,-0.21,0.16,0.54
0.435,-0.06,-0.20,-0.13,-0.21,0.16,0.54
0.439,-0.06,-0.20,-0.13,-0.18,0.13,0.50
0.44,-0.06,-0.17,-0.14,-0.18,0.13,0.50
0.444,-0.06,-0.13,-0.14,-0.18,0.13,0.50
0.446,-0.06,-0.13,-0.14,-0.18,0.14,0.45
0.449,-0.07,-0.09,-0.14,-0.18,0.14,0.45
0.45,-0.07,-0.09,-0.14,-0.19,0.15,0.42
0.454,-0.08,-0.06,-0.14,-0.19,0.15,0.42
0.455,-0.08,-0.06,-0.14,-0.22,0.14,0.34
0.459,-0.08,-0.06,-0.14,-0.22,0.15,0.26
0.46,-0.09,-0.04,-0.14,-0.22,0.15,0.26
0.464,-0.10,-0.02,-0.14,-0.22,0.15,0.26
0.465,-0.10,-0.02,-0.14,-0.24,0.17,0.20
0.469,-0.11,-0.01,-0.13,-0.24,0.17,0.20
0.47,-0.11,-0.01,-0.13,-0.24,0.20,0.13
0.487,-0.12,-0.01,-0.13,-0.24,0.20,0.13
0.488,-0.12,-0.01,-0.13,-0.22,0.21,0.12
0.489,-0.12,-0.02,-0.12,-0.22,0.21,0.12
0.49,-0.12,-0.02,-0.12,-0.26,0.24,0.13
0.491,-0.12,-0.02,-0.12,-0.25,0.28,0.18
0.492,-0.13,-0.03,-0.12,-0.25,0.28,0.18
0.493,-0.12,-0.05,-0.12,-0.25,0.28,0.18
0.494,-0.12,-0.05,-0.12,-0.22,0.25,0.23
0.51,-0.12,-0.05,-0.12,-0.19,0.30,0.29
0.511,-0.12,-0.07,-0.12,-0.19,0.30,0.29
0.514,-0.10,-0.09,-0.12,-0.19,0.30,0.29
0.516,-0.10,-0.09,-0.12,-0.17,0.29,0.33
0.518,-0.09,-0.10,-0.12,-0.17,0.29,0.33
0.519,-0.09,-0.10,-0.12,-0.12,0.30,0.34
0.52,-0.07,-0.10,-0.12,-0.12,0.30,0.34
0.521,-0.07,-0.10,-0.12,-0.06,0.27,0.34
0.521,-0.05,-0.09,-0.12,-0.06,0.27,0.34
0.522,-0.05,-0.09,-0.12,-0.03,0.26,0.35
0.523,-0.04,-0.09,-0.12,-0.03,0.26,0.35
0.524,-0.04,-0.09,-0.12,-0.02,0.24,0.37
0.525,-0.04,-0.09,-0.12,-0.01,0.27,0.38
0.526,-0.02,-0.07,-0.12,-0.01,0.27,0.38
0.534,-0.00,-0.05,-0.12,-0.01,0.27,0.38
0.535,-0.00,-0.05,-0.12,-0.00,0.22,0.35
0.536,0.01,-0.04,-0.12,-0.00,0.22,0.35
0.536,0.01,-0.04,-0.12,0.02,0.21,0.30
0.541,0.01,-0.04,-0.12,0.04,0.22,0.22
0.542,0.02,-0.03,-0.11,0.04,0.22,0.22
0.544,0.02,-0.02,-0.11,0.04,0.22,0.22
0.545,0.02,-0.02,-0.11,0.10,0.19,0.16
0.549,0.03,-0.00,-0.11,0.10,0.19,0.16
0.55,0.03,-0.00,-0.11,0.11,0.23,0.10
0.554,0.03,0.00,-0.10,0.11,0.23,0.10
0.556,0.03,0.00,-0.10,0.20,0.26,0.07
0.567,0.03,0.00,-0.10,0.22,0.26,0.03
0.569,0.02,0.01,-0.10,0.22,0.26,0.03
0.569,0.02,0.01,-0.10,0.27,0.26,0.03
0.57,0.02,0.00,-0.11,0.27,0.26,0.03
0.571,0.02,0.00,-0.11,0.30,0.29,0.02
0.572,0.01,-0.01,-0.11,0.30,0.29,0.02
0.575,0.01,-0.01,-0.11,0.34,0.26,-0.02
0.577,0.01,-0.02,-0.12,0.34,0.26,-0.02
0.58,0.01,-0.02,-0.12,0.38,0.25,0.04
0.581,-0.00,-0.04,-0.12,0.38,0.25,0.04
0.585,-0.00,-0.04,-0.12,0.42,0.23,0.08
0.586,-0.01,-0.05,-0.13,0.42,0.23,0.08
0.59,-0.01,-0.05,-0.13,0.45,0.23,0.10
0.591,-0.01,-0.07,-0.14,0.45,0.23,0.10
0.602,-0.01,-0.07,-0.14,0.51,0.21,0.16
0.604,-0.01,-0.08,-0.14,0.51,0.21,0.16
0.605,-0.01,-0.08,-0.14,0.54,0.17,0.16
0.607,-0.02,-0.09,-0.15,0.54,0.17,0.16
0.608,-0.02,-0.11,-0.16,0.54,0.17,0.16
0.609,-0.02,-0.11,-0.16,0.54,0.19,0.21
0.611,-0.02,-0.11,-0.16,0.51,0.17,0.30
0.612,-0.02,-0.12,-0.17,0.51,0.17,0.30
0.622,-0.03,-0.14,-0.17,0.51,0.17,0.30
0.624,-0.03,-0.14,-0.17,0.49,0.23,0.43
0.625,-0.03,-0.14,-0.17,0.47,0.23,0.52
0.625,-0.03,-0.15,-0.17,0.47,0.23,0.52
0.626,-0.02,-0.15,-0.18,0.47,0.23,0.52
0.627,-0.02,-0.15,-0.18,0.46,0.25,0.54
0.635,-0.02,-0.15,-0.18,0.49,0.22,0.57
0.637,-0.01,-0.15,-0.18,0.49,0.22,0.57
0.639,-0.01,-0.14,-0.19,0.49,0.22,0.57
0.641,-0.01,-0.14,-0.19,0.50,0.20,0.60
0.642,-0.01,-0.14,-0.19,0.47,0.22,0.57
0.643,0.00,-0.12,-0.20,0.47,0.22,0.57
0.646,0.01,-0.09,-0.20,0.47,0.22,0.57
0.648,0.01,-0.09,-0.20,0.45,0.21,0.53
0.65,0.01,-0.07,-0.21,0.45,0.21,0.53
0.651,0.01,-0.07,-0.21,0.38,0.19,0.45
0.655,0.01,-0.07,-0.21,0.29,0.20,0.36
0.656,0.02,-0.04,-0.21,0.29,0.20,0.36
0.661,0.02,-0.04,-0.21,0.30,0.16,0.25
0.662,0.02,-0.00,-0.20,0.30,0.16,0.25
0.665,0.02,0.04,-0.19,0.30,0.16,0.25
0.667,0.02,0.04,-0.19,0.29,0.18,0.09
0.67,0.02,0.04,-0.19,0.29,0.16,-0.05
0.671,0.02,0.07,-0.18,0.29,0.16,-0.05
0.675,0.02,0.07,-0.18,0.27,0.15,-0.16
0.677,0.01,0.10,-0.17,0.27,0.15,-0.16
0.681,0.00,0.11,-0.16,0.27,0.15,-0.16
0.682,0.00,0.11,-0.16,0.25,0.19,-0.28
0.686,-0.01,0.11,-0.16,0.25,0.19,-0.28
0.687,-0.01,0.11,-0.16,0.26,0.23,-0.40
0.693,-0.01,0.11,-0.16,0.24,0.27,-0.46
0.694,-0.01,0.10,-0.15,0.24,0.27,-0.46
0.695,-0.02,0.09,-0.14,0.24,0.27,-0.46
0.696,-0.02,0.09,-0.14,0.24,0.34,-0.51
0.701,-0.02,0.09,-0.14,0.24,0.38,-0.59
0.701,-0.03,0.07,-0.14,0.24,0.38,-0.59
0.708,-0.03,0.07,-0.14,0.24,0.42,-0.64
0.71,-0.03,0.05,-0.14,0.24,0.42,-0.64
0.711,-0.03,0.05,-0.14,0.24,0.47,-0.64
0.712,-0.04,0.02,-0.13,0.24,0.47,-0.64
0.716,-0.04,0.02,-0.13,0.22,0.49,-0.68
0.717,-0.04,-0.01,-0.14,0.22,0.49,-0.68
0.721,-0.04,-0.01,-0.14,0.24,0.51,-0.70
0.722,-0.05,-0.04,-0.14,0.24,0.51,-0.70
0.726,-0.05,-0.07,-0.14,0.24,0.51,-0.70
0.727,-0.05,-0.07,-0.14,0.20,0.53,-0.67
0.731,-0.06,-0.09,-0.15,0.20,0.53,-0.67
0.732,-0.06,-0.09,-0.15,0.18,0.57,-0.65
0.736,-0.06,-0.10,-0.15,0.18,0.57,-0.65
0.737,-0.06,-0.10,-0.15,0.16,0.56,-0.64
0.753,-0.06,-0.10,-0.15,0.16,0.58,-0.62
0.755,-0.07,-0.11,-0.15,0.16,0.58,-0.62
0.769,-0.07,-0.12,-0.16,0.16,0.58,-0.62
0.77,-0.07,-0.12,-0.16,0.15,0.54,-0.57
0.772,-0.07,-0.12,-0.16,0.10,0.55,-0.52
0.774,-0.08,-0.12,-0.16,0.10,0.55,-0.52
0.776,-0.09,-0.11,-0.16,0.10,0.55,-0.52
0.778,-0.09,-0.11,-0.16,0.06,0.57,-0.51
0.78,-0.09,-0.11,-0.16,0.06,0.56,-0.45
0.782,-0.09,-0.10,-0.16,0.06,0.56,-0.45
0.783,-0.10,-0.09,-0.16,0.06,0.56,-0.45
0.784,-0.10,-0.09,-0.16,0.01,0.57,-0.42
0.786,-0.11,-0.08,-0.17,0.01,0.57,-0.42
0.787,-0.11,-0.08,-0.17,-0.04,0.59,-0.37
0.788,-0.12,-0.08,-0.17,-0.04,0.59,-0.37
0.789,-0.12,-0.08,-0.17,-0.08,0.61,-0.34
0.79,-0.12,-0.07,-0.17,-0.08,0.61,-0.34
0.791,-0.12,-0.07,-0.17,-0.10,0.61,-0.28
0.792,-0.13,-0.07,-0.16,-0.10,0.61,-0.28
0.793,-0.13,-0.07,-0.16,-0.10,0.63,-0.27
0.794,-0.13,-0.08,-0.16,-0.10,0.63,-0.27
0.795,-0.13,-0.08,-0.16,-0.12,0.65,-0.21
0.796,-0.13,-0.08,-0.16,-0.16,0.65,-0.14
0.798,-0.13,-0.08,-0.16,-0.16,0.65,-0.14
0.802,-0.13,-0.09,-0.16,-0.16,0.65,-0.14
0.803,-0.13,-0.09,-0.16,-0.18,0.62,-0.11
0.809,-0.13,-0.09,-0.16,-0.23,0.60,-0.09
0.81,-0.14,-0.09,-0.16,-0.23,0.60,-0.09
0.811,-0.14,-0.09,-0.15,-0.23,0.60,-0.09
0.812,-0.14,-0.09,-0.15,-0.26,0.60,-0.06
0.816,-0.14,-0.09,-0.15,-0.21,0.58,-0.00
0.817,-0.14,-0.10,-0.15,-0.21,0.58,-0.00
0.821,-0.14,-0.10,-0.15,-0.21,0.56,0.07
0.822,-0.14,-0.09,-0.14,-0.21,0.56,0.07
0.826,-0.14,-0.09,-0.14,-0.24,0.56,0.08
0.828,-0.13,-0.09,-0.14,-0.24,0.56,0.08
0.831,-0.13,-0.09,-0.13,-0.24,0.56,0.08
0.832,-0.13,-0.09,-0.13,-0.22,0.54,0.10
0.837,-0.12,-0.09,-0.13,-0.22,0.54,0.10
0.837,-0.12,-0.09,-0.13,-0.23,0.51,0.14
0.842,-0.12,-0.09,-0.12,-0.23,0.51,0.14
0.844,-0.12,-0.09,-0.12,-0.23,0.55,0.22
0.847,-0.11,-0.08,-0.12,-0.23,0.55,0.22
0.848,-0.11,-0.08,-0.12,-0.22,0.57,0.25
0.852,-0.10,-0.08,-0.11,-0.22,0.57,0.25
0.853,-0.10,-0.08,-0.11,-0.23,0.58,0.26
0.859,-0.10,-0.08,-0.11,-0.19,0.56,0.30
0.861,-0.09,-0.08,-0.10,-0.19,0.56,0.30
0.862,-0.08,-0.07,-0.09,-0.19,0.56,0.30
0.863,-0.08,-0.07,-0.09,-0.18,0.58,0.29
0.867,-0.08,-0.07,-0.09,-0.17,0.60,0.28
0.868,-0.07,-0.07,-0.09,-0.17,0.60,0.28
0.872,-0.07,-0.06,-0.09,-0.17,0.60,0.28
0.873,-0.07,-0.06,-0.09,-0.14,0.59,0.31
0.877,-0.06,-0.05,-0.08,-0.14,0.59,0.31
0.879,-0.06,-0.05,-0.08,-0.13,0.59,0.31
0.882,-0.05,-0.04,-0.08,-0.13,0.59,0.31
0.883,-0.05,-0.04,-0.08,-0.11,0.59,0.26
0.887,-0.04,-0.03,-0.08,-0.11,0.59,0.26
0.888,-0.04,-0.03,-0.08,-0.12,0.60,0.24
0.899,-0.04,-0.03,-0.08,-0.13,0.62,0.18
0.902,-0.04,-0.01,-0.08,-0.13,0.62,0.18
0.903,-0.03,0.01,-0.08,-0.13,0.62,0.18
0.905,-0.03,0.01,-0.08,-0.10,0.61,0.12
0.906,-0.03,0.03,-0.07,-0.10,0.61,0.12
0.907,-0.03,0.03,-0.07,-0.10,0.64,-0.01
0.909,-0.03,0.03,-0.07,-0.09,0.58,-0.04
0.91,-0.03,0.05,-0.07,-0.09,0.58,-0.04
0.914,-0.03,0.06,-0.07,-0.09,0.58,-0.04
0.916,-0.03,0.06,-0.07,-0.07,0.59,-0.10
0.917,-0.03,0.08,-0.06,-0.07,0.59,-0.10
0.919,-0.03,0.08,-0.06,-0.04,0.63,-0.20
0.923,-0.03,0.09,-0.06,-0.04,0.63,-0.20
0.924,-0.03,0.09,-0.06,-0.07,0.64,-0.21
0.927,-0.03,0.08,-0.06,-0.07,0.64,-0.21
0.929,-0.03,0.08,-0.06,-0.09,0.66,-0.24
0.932,-0.03,0.08,-0.05,-0.09,0.66,-0.24
0.933,-0.03,0.08,-0.05,-0.07,0.68,-0.27
0.938,-0.03,0.08,-0.05,-0.05,0.70,-0.29
0.939,-0.03,0.07,-0.04,-0.05,0.70,-0.29
0.943,-0.03,0.05,-0.04,-0.05,0.70,-0.29
0.945,-0.03,0.05,-0.04,-0.05,0.73,-0.25
0.948,-0.02,0.04,-0.04,-0.05,0.73,-0.25
0.948,-0.02,0.04,-0.04,-0.06,0.70,-0.22
0.952,-0.02,0.04,-0.04,-0.06,0.68,-0.17
0.953,-0.01,0.01,-0.04,-0.06,0.68,-0.17
0.958,-0.01,0.01,-0.04,-0.07,0.69,-0.14
0.961,0.01,-0.01,-0.04,-0.07,0.69,-0.14
0.963,0.02,-0.02,-0.03,-0.07,0.69,-0.14
0.964,0.02,-0.02,-0.03,-0.09,0.69,-0.12
0.968,0.02,-0.02,-0.03,-0.09,0.68,-0.07
0.969,0.04,-0.04,-0.03,-0.09,0.68,-0.07
0.973,0.04,-0.04,-0.03,-0.07,0.67,-0.05
0.974,0.06,-0.05,-0.03,-0.07,0.67,-0.05
0.978,0.08,-0.05,-0.03,-0.07,0.67,-0.05
0.98,0.08,-0.05,-0.03,-0.06,0.67,-0.06
0.983,0.09,-0.05,-0.03,-0.06,0.67,-0.06
0.984,0.09,-0.05,-0.03,-0.06,0.65,-0.08
0.988,0.09,-0.06,-0.03,-0.06,0.65,-0.08
0.989,0.09,-0.06,-0.03,-0.09,0.65,-0.11
0.993,0.09,-0.06,-0.03,-0.09,0.66,-0.15
0.995,0.09,-0.05,-0.03,-0.09,0.66,-0.15
1.008,0.08,-0.04,-0.03,-0.09,0.66,-0.15
1.009,0.08,-0.04,-0.03,-0.12,0.62,-0.17
1.01,0.08,-0.04,-0.03,-0.15,0.62,-0.16
1.011,0.07,-0.03,-0.03,-0.15,0.62,-0.16
1.013,0.07,-0.03,-0.03,-0.12,0.64,-0.16
1.015,0.06,-0.02,-0.03,-0.12,0.64,-0.16
1.016,0.06,-0.02,-0.03,-0.14,0.67,-0.14
1.017,0.05,-0.00,-0.03,-0.14,0.67,-0.14
1.018,0.04,0.01,-0.03,-0.14,0.67,-0.14
1.019,0.04,0.01,-0.03,-0.16,0.63,-0.09
1.024,0.04,0.01,-0.03,-0.14,0.62,-0.10
1.026,0.03,0.03,-0.03,-0.14,0.62,-0.10
1.028,0.02,0.04,-0.03,-0.14,0.62,-0.10
1.029,0.02,0.04,-0.03,-0.16,0.63,-0.05
1.033,0.02,0.04,-0.03,-0.17,0.64,-0.02
1.034,0.02,0.06,-0.03,-0.17,0.64,-0.02
1.038,0.02,0.06,-0.03,-0.20,0.61,0.00
1.039,0.01,0.07,-0.03,-0.20,0.61,0.00
1.049,0.01,0.09,-0.03,-0.20,0.61,0.00
1.05,0.01,0.09,-0.03,-0.24,0.62,0.01
1.051,0.01,0.10,-0.03,-0.24,0.62,0.01
1.052,0.01,0.10,-0.03,-0.25,0.58,-0.02
1.053,0.01,0.10,-0.03,-0.25,0.55,-0.05
1.054,0.01,0.12,-0.03,-0.25,0.55,-0.05
1.058,0.01,0.13,-0.02,-0.25,0.55,-0.05
1.06,0.01,0.13,-0.02,-0.28,0.59,-0.05
1.063,0.01,0.13,-0.02,-0.28,0.60,-0.10
1.064,0.01,0.14,-0.02,-0.28,0.60,-0.10
1.068,0.01,0.15,-0.01,-0.28,0.60,-0.10
1.069,0.01,0.15,-0.01,-0.26,0.59,-0.15
1.075,0.01,0.15,-0.01,-0.27,0.58,-0.20
1.077,0.02,0.16,-0.01,-0.27,0.58,-0.20
1.078,0.02,0.17,-0.01,-0.27,0.58,-0.20
1.079,0.02,0.17,-0.01,-0.28,0.59,-0.22
1.084,0.02,0.17,-0.00,-0.28,0.59,-0.22
1.085,0.02,0.17,-0.00,-0.28,0.58,-0.28
1.089,0.01,0.18,0.01,-0.28,0.58,-0.28
1.089,0.01,0.18,0.01,-0.27,0.56,-0.33
1.094,0.01,0.18,0.01,-0.29,0.55,-0.34
1.095,0.01,0.18,0.01,-0.29,0.55,-0.34
1.099,0.01,0.18,0.02,-0.29,0.55,-0.34
1.099,0.01,0.18,0.02,-0.33,0.56,-0.37
1.103,0.01,0.18,0.02,-0.38,0.57,-0.34
1.104,0.01,0.17,0.03,-0.38,0.57,-0.34
1.109,0.01,0.17,0.03,-0.39,0.58,-0.35
1.111,0.01,0.18,0.04,-0.39,0.58,-0.35
1.114,0.01,0.17,0.05,-0.39,0.58,-0.35
1.115,0.01,0.17,0.05,-0.38,0.59,-0.33
1.119,0.02,0.18,0.06,-0.38,0.59,-0.33
1.12,0.02,0.18,0.06,-0.36,0.58,-0.30
1.124,0.02,0.18,0.06,-0.33,0.56,-0.30
1.128,0.02,0.18,0.07,-0.33,0.56,-0.30
1.129,0.03,0.18,0.08,-0.33,0.56,-0.30
1.131,0.03,0.18,0.08,-0.33,0.55,-0.25
1.134,0.03,0.18,0.08,-0.29,0.55,-0.23
1.135,0.03,0.18,0.09,-0.29,0.55,-0.23
1.139,0.03,0.19,0.10,-0.29,0.55,-0.23
1.14,0.03,0.19,0.10,-0.28,0.51,-0.19
1.145,0.03,0.19,0.10,-0.26,0.48,-0.21
1.146,0.04,0.19,0.10,-0.26,0.48,-0.21
1.149,0.04,0.19,0.10,-0.19,0.44,-0.21
1.149,0.03,0.19,0.11,-0.19,0.44,-0.21
1.154,0.03,0.19,0.11,-0.17,0.41,-0.21
1.155,0.02,0.18,0.11,-0.17,0.41,-0.21
1.165,0.02,0.18,0.11,-0.17,0.39,-0.15
1.166,0.01,0.17,0.11,-0.17,0.39,-0.15
1.167,0.01,0.17,0.11,-0.20,0.41,-0.05
1.168,-0.01,0.14,0.12,-0.20,0.41,-0.05
1.169,-0.01,0.14,0.12,-0.23,0.43,0.03
1.17,-0.03,0.11,0.12,-0.23,0.43,0.03
1.174,-0.03,0.11,0.12,-0.27,0.46,0.20
1.176,-0.05,0.07,0.12,-0.27,0.46,0.20
1.179,-0.05,0.07,0.12,-0.31,0.50,0.41
1.18,-0.07,0.04,0.13,-0.31,0.50,0.41
1.184,-0.08,0.01,0.13,-0.31,0.50,0.41
1.185,-0.08,0.01,0.13,-0.32,0.48,0.57
1.189,-0.08,0.01,0.13,-0.26,0.49,0.78
1.19,-0.09,-0.01,0.14,-0.26,0.49,0.78
1.194,-0.09,-0.01,0.14,-0.24,0.45,0.95
1.196,-0.09,-0.01,0.14,-0.24,0.45,0.95
1.199,-0.09,-0.01,0.14,-0.18,0.43,1.10
1.2,-0.09,-0.02,0.14,-0.18,0.43,1.10
1.204,-0.08,-0.04,0.13,-0.18,0.43,1.10
1.205,-0.08,-0.04,0.13,-0.15,0.43,1.24
1.21,-0.08,-0.04,0.13,-0.17,0.39,1.37
1.211,-0.08,-0.04,0.13,-0.17,0.39,1.37
1.215,-0.08,-0.03,0.12,-0.17,0.39,1.37
1.215,-0.08,-0.03,0.12,-0.20,0.34,1.50
1.219,-0.08,-0.03,0.12,-0.19,0.33,1.56
1.22,-0.07,-0.01,0.12,-0.19,0.33,1.56
1.225,-0.07,-0.01,0.12,-0.18,0.30,1.62
1.227,-0.06,0.02,0.12,-0.18,0.30,1.62
1.23,-0.05,0.05,0.13,-0.18,0.30,1.62
1.231,-0.05,0.05,0.13,-0.16,0.26,1.67
1.234,-0.05,0.05,0.13,-0.10,0.21,1.69
1.235,-0.04,0.09,0.13,-0.10,0.21,1.69
1.242,-0.03,0.14,0.13,-0.10,0.21,1.69
1.244,-0.03,0.14,0.13,-0.07,0.15,1.67
1.248,-0.03,0.14,0.13,-0.04,0.13,1.63
1.249,-0.01,0.18,0.13,-0.04,0.13,1.63
1.261,0.00,0.23,0.12,-0.04,0.13,1.63
1.262,0.00,0.23,0.12,-0.01,0.11,1.56
1.263,0.01,0.27,0.12,-0.01,0.11,1.56
1.263,0.01,0.27,0.12,-0.08,0.09,1.46
1.266,0.01,0.27,0.12,-0.09,0.08,1.31
1.267,0.02,0.31,0.12,-0.09,0.08,1.31
1.268,0.02,0.31,0.12,-0.10,0.05,1.18
1.268,0.03,0.33,0.12,-0.10,0.05,1.18
1.272,0.03,0.33,0.12,-0.12,0.06,1.06
1.274,0.03,0.34,0.12,-0.12,0.06,1.06
1.275,0.03,0.35,0.13,-0.12,0.06,1.06
1.276,0.03,0.35,0.13,-0.13,0.05,0.92
1.28,0.03,0.36,0.14,-0.13,0.05,0.92
1.28,0.03,0.36,0.14,-0.15,-0.01,0.84
1.285,0.03,0.36,0.14,-0.17,-0.05,0.73
1.285,0.03,0.35,0.15,-0.17,-0.05,0.73
1.29,0.03,0.35,0.16,-0.17,-0.05,0.73
1.292,0.03,0.35,0.16,-0.19,-0.05,0.66
1.295,0.03,0.34,0.18,-0.19,-0.05,0.66
1.296,0.03,0.34,0.18,-0.17,-0.10,0.51
1.3,0.03,0.34,0.18,-0.18,-0.13,0.38
1.301,0.04,0.33,0.20,-0.18,-0.13,0.38
1.305,0.04,0.33,0.20,-0.18,-0.17,0.31
1.306,0.04,0.32,0.22,-0.18,-0.17,0.31
1.311,0.04,0.31,0.25,-0.18,-0.17,0.31
1.312,0.04,0.31,0.25,-0.18,-0.20,0.25
1.315,0.05,0.31,0.27,-0.18,-0.20,0.25
1.316,0.05,0.31,0.27,-0.15,-0.24,0.18
1.32,0.06,0.30,0.30,-0.15,-0.24,0.18
1.321,0.06,0.30,0.30,-0.12,-0.23,0.06
1.33,0.06,0.30,0.30,-0.07,-0.21,0.01
1.332,0.06,0.29,0.33,-0.07,-0.21,0.01
1.333,0.07,0.28,0.36,-0.07,-0.21,0.01
1.334,0.07,0.28,0.36,-0.05,-0.22,-0.05
1.335,0.08,0.27,0.38,-0.05,-0.22,-0.05
1.336,0.08,0.27,0.38,-0.04,-0.23,-0.18
1.342,0.08,0.27,0.38,-0.04,-0.19,-0.28
1.343,0.08,0.26,0.41,-0.04,-0.19,-0.28
1.346,0.08,0.25,0.43,-0.04,-0.19,-0.28
1.347,0.08,0.25,0.43,0.02,-0.22,-0.36
1.35,0.09,0.25,0.46,0.02,-0.22,-0.36
1.351,0.09,0.25,0.46,0.08,-0.19,-0.38
1.355,0.09,0.24,0.47,0.08,-0.19,-0.38
1.356,0.09,0.24,0.47,0.08,-0.19,-0.45
1.36,0.10,0.22,0.49,0.08,-0.19,-0.45
1.362,0.10,0.22,0.49,0.10,-0.21,-0.45
1.366,0.11,0.21,0.51,0.10,-0.21,-0.45
1.366,0.11,0.21,0.51,0.13,-0.21,-0.51
1.37,0.11,0.20,0.52,0.13,-0.21,-0.51
1.371,0.11,0.20,0.52,0.15,-0.21,-0.58
1.376,0.12,0.18,0.53,0.15,-0.21,-0.58
1.378,0.12,0.18,0.53,0.20,-0.21,-0.62
1.381,0.12,0.17,0.54,0.20,-0.21,-0.62
1.382,0.12,0.17,0.54,0.26,-0.22,-0.66
1.386,0.12,0.17,0.54,0.28,-0.27,-0.68
1.387,0.12,0.15,0.55,0.28,-0.27,-0.68
1.392,0.13,0.13,0.56,0.28,-0.27,-0.68
1.395,0.13,0.13,0.56,0.29,-0.28,-0.72
1.396,0.12,0.11,0.57,0.29,-0.28,-0.72
1.398,0.12,0.11,0.57,0.29,-0.29,-0.72
1.401,0.12,0.09,0.58,0.29,-0.29,-0.72
1.402,0.12,0.09,0.58,0.34,-0.30,-0.71
1.406,0.12,0.09,0.58,0.35,-0.29,-0.65
1.408,0.13,0.07,0.59,0.35,-0.29,-0.65
1.412,0.13,0.05,0.59,0.35,-0.29,-0.65
1.414,0.13,0.05,0.59,0.38,-0.29,-0.62
1.415,0.14,0.03,0.59,0.38,-0.29,-0.62
1.416,0.14,0.03,0.59,0.43,-0.30,-0.61
1.421,0.14,0.01,0.59,0.43,-0.30,-0.61
1.423,0.14,0.01,0.59,0.47,-0.31,-0.58
1.428,0.14,0.01,0.59,0.46,-0.32,-0.58
1.43,0.15,-0.01,0.59,0.46,-0.32,-0.58
1.432,0.16,-0.02,0.58,0.46,-0.32,-0.58
1.433,0.16,-0.02,0.58,0.47,-0.36,-0.58
1.436,0.16,-0.03,0.57,0.47,-0.36,-0.58
1.438,0.16,-0.03,0.57,0.51,-0.35,-0.59
1.448,0.16,-0.03,0.57,0.53,-0.36,-0.62
1.45,0.17,-0.04,0.56,0.53,-0.36,-0.62
1.451,0.17,-0.04,0.56,0.56,-0.35,-0.59
1.452,0.17,-0.05,0.55,0.56,-0.35,-0.59
1.453,0.17,-0.06,0.54,0.56,-0.35,-0.59
1.454,0.17,-0.06,0.54,0.55,-0.40,-0.57
1.456,0.17,-0.07,0.53,0.55,-0.40,-0.57
1.458,0.17,-0.07,0.53,0.56,-0.41,-0.60
1.462,0.17,-0.07,0.53,0.59,-0.43,-0.60
1.464,0.16,-0.08,0.50,0.59,-0.43,-0.60
1.467,0.16,-0.08,0.50,0.59,-0.41,-0.58
1.468,0.15,-0.10,0.48,0.59,-0.41,-0.58
1.471,0.14,-0.14,0.46,0.59,-0.41,-0.58
1.472,0.14,-0.14,0.46,0.54,-0.42,-0.59
1.476,0.14,-0.14,0.46,0.52,-0.44,-0.49
1.478,0.12,-0.17,0.44,0.52,-0.44,-0.49
1.481,0.12,-0.17,0.44,0.45,-0.45,-0.42
1.482,0.11,-0.20,0.41,0.45,-0.45,-0.42
1.487,0.11,-0.20,0.41,0.41,-0.45,-0.29
1.488,0.09,-0.25,0.39,0.41,-0.45,-0.29
1.492,0.07,-0.28,0.37,0.41,-0.45,-0.29
1.494,0.07,-0.28,0.37,0.40,-0.44,-0.17
1.497,0.07,-0.28,0.37,0.35,-0.46,0.02
1.498,0.05,-0.31,0.35,0.35,-0.46,0.02
1.51,0.04,-0.33,0.33,0.35,-0.46,0.02
1.511,0.04,-0.33,0.33,0.33,-0.48,0.17
1.512,0.04,-0.33,0.33,0.33,-0.49,0.38
1.513,0.03,-0.36,0.31,0.33,-0.49,0.38
1.514,0.03,-0.36,0.31,0.32,-0.48,0.58
1.517,0.02,-0.38,0.29,0.32,-0.48,0.58
1.518,0.02,-0.38,0.29,0.28,-0.51,0.74
1.519,0.01,-0.39,0.27,0.28,-0.51,0.74
1.523,0.01,-0.39,0.27,0.26,-0.50,0.91
1.526,0.01,-0.39,0.24,0.26,-0.50,0.91
1.527,0.01,-0.39,0.24,0.18,-0.55,1.02
1.529,0.01,-0.39,0.21,0.18,-0.55,1.02
1.532,0.01,-0.38,0.19,0.18,-0.55,1.02
1.533,0.01,-0.38,0.19,0.11,-0.53,1.19
1.537,0.01,-0.38,0.19,0.02,-0.53,1.30
1.538,0.01,-0.36,0.16,0.02,-0.53,1.30
1.542,0.01,-0.36,0.16,-0.02,-0.55,1.40
1.544,0.02,-0.34,0.14,-0.02,-0.55,1.40
1.547,0.02,-0.34,0.14,-0.08,-0.57,1.47
1.548,0.03,-0.30,0.13,-0.08,-0.57,1.47
1.552,0.03,-0.26,0.11,-0.08,-0.57,1.47
1.553,0.03,-0.26,0.11,-0.14,-0.63,1.50
1.558,0.04,-0.21,0.09,-0.14,-0.63,1.50
1.56,0.04,-0.21,0.09,-0.22,-0.63,1.45
1.562,0.04,-0.21,0.09,-0.30,-0.66,1.39
1.563,0.05,-0.16,0.07,-0.30,-0.66,1.39
1.567,0.05,-0.16,0.07,-0.39,-0.65,1.36
1.568,0.06,-0.10,0.07,-0.39,-0.65,1.36
1.572,0.06,-0.03,0.06,-0.39,-0.65,1.36
1.573,0.06,-0.03,0.06,-0.46,-0.65,1.23
1.577,0.06,-0.03,0.06,-0.48,-0.66,1.12
1.578,0.07,0.02,0.06,-0.48,-0.66,1.12
1.582,0.07,0.02,0.06,-0.51,-0.69,0.98
1.583,0.07,0.06,0.06,-0.51,-0.69,0.98
1.587,0.08,0.09,0.06,-0.51,-0.69,0.98
1.589,0.08,0.09,0.06,-0.53,-0.70,0.84
1.599,0.08,0.11,0.06,-0.53,-0.70,0.84
1.601,0.08,0.11,0.06,-0.53,-0.67,0.67
1.602,0.08,0.11,0.06,-0.51,-0.62,0.51
1.604,0.08,0.13,0.07,-0.51,-0.62,0.51
1.605,0.08,0.13,0.07,-0.46,-0.56,0.38
1.606,0.09,0.15,0.08,-0.46,-0.56,0.38
1.608,0.09,0.15,0.08,-0.40,-0.58,0.23
1.609,0.09,0.16,0.09,-0.40,-0.58,0.23
1.613,0.09,0.16,0.09,-0.32,-0.55,0.11
1.614,0.10,0.16,0.09,-0.32,-0.55,0.11
1.618,0.10,0.17,0.10,-0.32,-0.55,0.11
1.619,0.10,0.17,0.10,-0.27,-0.54,-0.03
1.623,0.10,0.17,0.10,-0.23,-0.52,-0.19
1.624,0.12,0.16,0.10,-0.23,-0.52,-0.19
1.628,0.13,0.16,0.10,-0.23,-0.52,-0.19
1.63,0.13,0.16,0.10,-0.16,-0.50,-0.33
1.633,0.14,0.15,0.10,-0.16,-0.50,-0.33
1.634,0.14,0.15,0.10,-0.12,-0.48,-0.48
1.638,0.14,0.13,0.09,-0.12,-0.48,-0.48
1.639,0.14,0.13,0.09,-0.08,-0.47,-0.60
1.643,0.15,0.11,0.09,-0.08,-0.47,-0.60
1.645,0.15,0.11,0.09,-0.09,-0.44,-0.71
1.648,0.15,0.11,0.09,-0.07,-0.44,-0.87
1.649,0.15,0.09,0.09,-0.07,-0.44,-0.87
1.653,0.15,0.06,0.09,-0.07,-0.44,-0.87
1.654,0.15,0.06,0.09,-0.05,-0.47,-1.01
1.659,0.15,0.06,0.09,-0.03,-0.45,-1.05
1.661,0.14,0.05,0.09,-0.03,-0.45,-1.05
1.663,0.14,0.05,0.09,-0.03,-0.43,-1.12
1.664,0.14,0.02,0.09,-0.03,-0.43,-1.12
1.668,0.14,0.02,0.09,0.00,-0.43,-1.18
1.669,0.12,-0.00,0.08,0.00,-0.43,-1.18
1.673,0.11,-0.02,0.08,0.00,-0.43,-1.18
1.674,0.11,-0.02,0.08,0.05,-0.39,-1.17
1.68,0.11,-0.02,0.08,0.03,-0.39,-1.16
1.682,0.10,-0.05,0.08,0.03,-0.39,-1.16
1.685,0.10,-0.05,0.08,0.03,-0.36,-1.10
1.685,0.08,-0.07,0.08,0.03,-0.36,-1.10
1.688,0.08,-0.07,0.08,0.04,-0.35,-1.05
1.69,0.06,-0.10,0.08,0.04,-0.35,-1.05
1.694,0.06,-0.10,0.08,0.02,-0.37,-0.92
1.697,0.05,-0.13,0.08,0.02,-0.37,-0.92
1.699,0.05,-0.13,0.08,0.02,-0.33,-0.77
1.7,0.04,-0.15,0.07,0.02,-0.33,-0.77
1.704,0.04,-0.15,0.07,0.06,-0.33,-0.61
1.705,0.03,-0.18,0.07,0.06,-0.33,-0.61
1.71,0.02,-0.20,0.06,0.06,-0.33,-0.61
1.713,0.02,-0.20,0.06,0.04,-0.33,-0.46
1.715,0.02,-0.20,0.06,0.03,-0.32,-0.33
1.716,0.02,-0.22,0.06,0.03,-0.32,-0.33
1.72,0.02,-0.23,0.05,0.03,-0.32,-0.33
1.721,0.02,-0.23,0.05,0.01,-0.30,-0.20
1.726,0.02,-0.24,0.05,0.01,-0.30,-0.20
1.728,0.02,-0.24,0.05,-0.03,-0.29,-0.07
1.73,0.03,-0.24,0.05,-0.03,-0.29,-0.07
1.73,0.03,-0.24,0.05,-0.03,-0.31,0.03
1.733,0.03,-0.23,0.04,-0.03,-0.31,0.03
1.734,0.03,-0.23,0.04,-0.04,-0.30,0.09
1.738,0.03,-0.23,0.04,-0.09,-0.29,0.15
1.739,0.04,-0.23,0.04,-0.09,-0.29,0.15
1.749,0.04,-0.22,0.04,-0.09,-0.29,0.15
1.751,0.04,-0.22,0.04,-0.07,-0.29,0.22
1.752,0.04,-0.20,0.04,-0.07,-0.29,0.22
1.753,0.04,-0.20,0.04,-0.04,-0.27,0.24
1.767,0.04,-0.20,0.04,-0.10,-0.26,0.22
1.768,0.04,-0.18,0.04,-0.10,-0.26,0.22
1.768,0.04,-0.18,0.04,-0.09,-0.24,0.21
1.77,0.04,-0.15,0.03,-0.09,-0.24,0.21
1.772,0.04,-0.13,0.03,-0.09,-0.24,0.21
1.773,0.04,-0.13,0.03,-0.07,-0.23,0.16
1.774,0.03,-0.11,0.02,-0.07,-0.23,0.16
1.775,0.03,-0.11,0.02,-0.08,-0.19,0.10
1.776,0.03,-0.09,0.01,-0.08,-0.19,0.10
1.777,0.03,-0.09,0.01,-0.08,-0.17,0.04
1.778,0.02,-0.07,0.01,-0.08,-0.17,0.04
1.779,0.02,-0.07,0.01,-0.10,-0.11,-0.03
1.783,0.00,-0.05,-0.00,-0.10,-0.11,-0.03
1.785,0.00,-0.05,-0.00,-0.13,-0.08,-0.08
1.789,-0.01,-0.04,-0.01,-0.13,-0.08,-0.08
1.79,-0.01,-0.04,-0.01,-0.17,-0.05,-0.09
1.794,-0.02,-0.04,-0.01,-0.17,-0.05,-0.09
1.796,-0.02,-0.04,-0.01,-0.14,-0.02,-0.14
1.798,-0.02,-0.04,-0.01,-0.12,-0.01,-0.16
1.799,-0.03,-0.03,-0.01,-0.12,-0.01,-0.16
1.804,-0.03,-0.03,-0.02,-0.12,-0.01,-0.16
1.804,-0.03,-0.03,-0.02,-0.10,0.00,-0.14
1.809,-0.03,-0.03,-0.02,-0.08,0.01,-0.11
1.811,-0.03,-0.03,-0.03,-0.08,0.01,-0.11
1.814,-0.03,-0.04,-0.03,-0.08,0.01,-0.11
1.815,-0.03,-0.04,-0.03,-0.05,0.01,-0.13
1.819,-0.03,-0.05,-0.04,-0.05,0.01,-0.13
1.819,-0.03,-0.05,-0.04,-0.06,0.01,-0.14
1.825,-0.02,-0.06,-0.04,-0.06,0.01,-0.14
1.827,-0.02,-0.06,-0.04,-0.03,0.06,-0.19
1.829,-0.02,-0.06,-0.04,-0.03,0.06,-0.16
1.83,-0.01,-0.07,-0.05,-0.03,0.06,-0.16
1.834,-0.01,-0.07,-0.06,-0.03,0.06,-0.16
1.835,-0.01,-0.07,-0.06,0.00,0.05,-0.19
1.839,-0.01,-0.07,-0.06,-0.02,0.07,-0.24
1.844,-0.00,-0.08,-0.06,-0.02,0.07,-0.24
1.846,0.00,-0.09,-0.07,-0.02,0.07,-0.24
1.848,0.00,-0.09,-0.07,-0.00,0.06,-0.27
1.85,0.00,-0.09,-0.07,0.03,0.07,-0.29
1.851,0.00,-0.09,-0.07,0.03,0.07,-0.29
1.855,0.00,-0.10,-0.07,0.03,0.07,-0.29
1.856,0.00,-0.10,-0.07,0.03,0.06,-0.31
1.859,0.00,-0.10,-0.08,0.03,0.06,-0.31
1.862,0.00,-0.10,-0.08,0.01,0.10,-0.40
1.864,-0.00,-0.10,-0.08,0.01,0.10,-0.40
1.865,-0.00,-0.10,-0.08,0.05,0.11,-0.38
1.869,-0.01,-0.10,-0.09,0.05,0.11,-0.38
1.87,-0.01,-0.10,-0.09,0.08,0.14,-0.41
1.883,-0.01,-0.10,-0.10,0.08,0.14,-0.41
1.885,-0.01,-0.10,-0.10,0.08,0.16,-0.47
1.886,-0.01,-0.11,-0.11,0.08,0.16,-0.47
1.887,-0.01,-0.11,-0.11,0.13,0.18,-0.44
1.888,-0.01,-0.11,-0.11,0.15,0.16,-0.41
1.889,-0.02,-0.11,-0.11,0.15,0.16,-0.41
1.893,-0.02,-0.11,-0.11,0.11,0.22,-0.38
1.895,-0.02,-0.11,-0.13,0.11,0.22,-0.38
1.898,-0.02,-0.11,-0.14,0.11,0.22,-0.38
1.9,-0.02,-0.11,-0.14,0.16,0.24,-0.38
1.901,-0.02,-0.12,-0.15,0.16,0.24,-0.38
1.903,-0.02,-0.12,-0.15,0.15,0.23,-0.40
1.905,-0.02,-0.13,-0.17,0.15,0.23,-0.40
1.907,-0.02,-0.13,-0.17,0.17,0.21,-0.38
1.912,-0.02,-0.13,-0.17,0.18,0.24,-0.32
1.914,-0.02,-0.14,-0.18,0.18,0.24,-0.32
1.916,-0.02,-0.15,-0.19,0.18,0.24,-0.32
1.918,-0.02,-0.15,-0.19,0.15,0.27,-0.32
1.921,-0.02,-0.16,-0.20,0.15,0.27,-0.32
1.922,-0.02,-0.16,-0.20,0.11,0.25,-0.30
1.926,-0.03,-0.17,-0.21,0.11,0.25,-0.30
1.927,-0.03,-0.17,-0.21,0.08,0.25,-0.25
1.93,-0.03,-0.17,-0.21,0.05,0.25,-0.18
1.931,-0.04,-0.19,-0.22,0.05,0.25,-0.18
1.935,-0.04,-0.21,-0.23,0.05,0.25,-0.18
1.936,-0.04,-0.21,-0.23,-0.00,0.27,-0.12
1.942,-0.04,-0.22,-0.23,-0.00,0.27,-0.12
1.944,-0.04,-0.22,-0.23,-0.02,0.23,-0.02
1.945,-0.04,-0.24,-0.24,-0.02,0.23,-0.02
1.946,-0.04,-0.24,-0.24,-0.10,0.25,0.15
1.95,-0.04,-0.24,-0.24,-0.09,0.24,0.20
1.95,-0.04,-0.26,-0.25,-0.09,0.24,0.20
1.955,-0.03,-0.27,-0.25,-0.09,0.24,0.20
1.955,-0.03,-0.27,-0.25,-0.16,0.22,0.34
1.96,-0.02,-0.27,-0.25,-0.16,0.22,0.34
1.961,-0.02,-0.27,-0.25,-0.21,0.25,0.49
1.965,-0.00,-0.27,-0.25,-0.21,0.25,0.49
1.966,-0.00,-0.27,-0.25,-0.21,0.24,0.60
1.97,-0.00,-0.27,-0.25,-0.15,0.19,0.67
1.971,0.02,-0.26,-0.25,-0.15,0.19,0.67
1.976,0.04,-0.25,-0.25,-0.15,0.19,0.67
1.978,0.04,-0.25,-0.25,-0.14,0.15,0.72
1.98,0.07,-0.24,-0.25,-0.14,0.15,0.72
1.981,0.07,-0.24,-0.25,-0.11,0.13,0.78
1.985,0.09,-0.22,-0.25,-0.11,0.13,0.78
1.986,0.09,-0.22,-0.25,-0.06,0.10,0.77
1.992,0.09,-0.22,-0.25,-0.10,0.10,0.73
1.994,0.11,-0.21,-0.25,-0.10,0.10,0.73
1.995,0.13,-0.20,-0.25,-0.10,0.10,0.73
1.996,0.13,-0.20,-0.25,-0.12,0.13,0.68
2.0,0.14,-0.18,-0.25,-0.12,0.13,0.68
2.001,0.14,-0.18,-0.25,-0.12,0.17,0.67
2.013,0.14,-0.18,-0.25,-0.13,0.18,0.60
2.014,0.15,-0.17,-0.25,-0.13,0.18,0.60
2.015,0.15,-0.17,-0.25,-0.14,0.15,0.59
2.017,0.16,-0.17,-0.25,-0.14,0.15,0.59
2.02,0.17,-0.17,-0.25,-0.14,0.15,0.59
2.021,0.17,-0.17,-0.25,-0.11,0.16,0.53
2.022,0.17,-0.16,-0.25,-0.11,0.16,0.53
2.023,0.17,-0.16,-0.25,-0.06,0.13,0.47
2.027,0.17,-0.16,-0.25,0.02,0.08,0.38
2.028,0.17,-0.15,-0.25,0.02,0.08,0.38
2.03,0.17,-0.13,-0.26,0.02,0.08,0.38
2.031,0.17,-0.13,-0.26,0.05,0.06,0.31
2.035,0.16,-0.11,-0.26,0.05,0.06,0.31
2.036,0.16,-0.11,-0.26,0.12,0.01,0.19
2.046,0.16,-0.11,-0.26,0.19,-0.01,0.05
2.048,0.15,-0.08,-0.27,0.19,-0.01,0.05
2.049,0.13,-0.06,-0.28,0.19,-0.01,0.05
2.05,0.13,-0.06,-0.28,0.26,-0.08,-0.08
2.051,0.13,-0.06,-0.28,0.33,-0.13,-0.22
2.052,0.10,-0.04,-0.29,0.33,-0.13,-0.22
2.055,0.08,-0.02,-0.31,0.33,-0.13,-0.22
2.056,0.08,-0.02,-0.31,0.36,-0.19,-0.35
2.06,0.04,-0.02,-0.33,0.36,-0.19,-0.35
2.061,0.04,-0.02,-0.33,0.42,-0.22,-0.40
2.065,-0.00,-0.04,-0.35,0.42,-0.22,-0.40
2.066,-0.00,-0.04,-0.35,0.40,-0.24,-0.49
2.071,-0.00,-0.04,-0.35,0.36,-0.24,-0.51
2.071,-0.05,-0.06,-0.36,0.36,-0.24,-0.51
2.076,-0.10,-0.10,-0.38,0.36,-0.24,-0.51
2.077,-0.10,-0.10,-0.38,0.27,-0.20,-0.41
2.08,-0.15,-0.15,-0.39,0.27,-0.20,-0.41
2.081,-0.15,-0.15,-0.39,0.17,-0.18,-0.31
2.086,-0.19,-0.20,-0.40,0.17,-0.18,-0.31
2.086,-0.19,-0.20,-0.40,0.07,-0.15,-0.09
2.091,-0.19,-0.20,-0.40,-0.04,-0.09,0.14
2.093,-0.23,-0.26,-0.40,-0.04,-0.09,0.14
2.096,-0.25,-0.30,-0.40,-0.04,-0.09,0.14
2.097,-0.25,-0.30,-0.40,-0.14,-0.15,0.39
2.101,-0.27,-0.33,-0.40,-0.14,-0.15,0.39
2.102,-0.27,-0.33,-0.40,-0.19,-0.17,0.67
2.106,-0.27,-0.34,-0.39,-0.19,-0.17,0.67
2.107,-0.27,-0.34,-0.39,-0.22,-0.19,0.94
2.111,-0.27,-0.34,-0.39,-0.34,-0.23,1.14
2.112,-0.27,-0.34,-0.38,-0.34,-0.23,1.14
2.116,-0.26,-0.31,-0.36,-0.34,-0.23,1.14
2.117,-0.26,-0.31,-0.36,-0.43,-0.24,1.28
2.121,-0.24,-0.27,-0.34,-0.43,-0.24,1.28
2.122,-0.24,-0.27,-0.34,-0.46,-0.29,1.31
2.126,-0.21,-0.20,-0.31,-0.46,-0.29,1.31
2.128,-0.21,-0.20,-0.31,-0.49,-0.32,1.29
2.132,-0.21,-0.20,-0.31,-0.51,-0.35,1.20
2.133,-0.19,-0.13,-0.28,-0.51,-0.35,1.20
2.136,-0.16,-0.05,-0.24,-0.51,-0.35,1.20
2.137,-0.16,-0.05,-0.24,-0.52,-0.33,1.06
2.142,-0.14,0.02,-0.21,-0.52,-0.33,1.06
2.144,-0.14,0.02,-0.21,-0.46,-0.36,0.84
2.147,-0.11,0.08,-0.17,-0.46,-0.36,0.84
2.148,-0.11,0.08,-0.17,-0.37,-0.36,0.64
2.151,-0.09,0.12,-0.15,-0.37,-0.36,0.64
2.152,-0.09,0.12,-0.15,-0.27,-0.33,0.37
2.168,-0.09,0.12,-0.15,-0.16,-0.29,0.08
2.17,-0.08,0.14,-0.12,-0.16,-0.29,0.08
2.171,-0.08,0.14,-0.12,0.04,-0.31,-0.14
2.173,-0.06,0.15,-0.10,0.04,-0.31,-0.14
2.174,-0.06,0.13,-0.09,0.04,-0.31,-0.14
2.175,-0.06,0.13,-0.09,0.21,-0.29,-0.34
2.177,-0.06,0.13,-0.09,0.35,-0.29,-0.52
2.178,-0.06,0.11,-0.09,0.35,-0.29,-0.52
2.18,-0.07,0.08,-0.10,0.35,-0.29,-0.52
2.181,-0.07,0.08,-0.10,0.47,-0.23,-0.62
2.182,-0.07,0.08,-0.10,0.50,-0.23,-0.66
2.183,-0.07,0.04,-0.11,0.50,-0.23,-0.66
2.187,-0.07,0.00,-0.13,0.50,-0.23,-0.66
2.189,-0.07,0.00,-0.13,0.48,-0.19,-0.69
2.192,-0.07,0.00,-0.13,0.44,-0.19,-0.65
2.194,-0.07,-0.04,-0.15,0.44,-0.19,-0.65
2.197,-0.07,-0.08,-0.17,0.44,-0.19,-0.65
2.198,-0.07,-0.08,-0.17,0.38,-0.16,-0.56
2.202,-0.07,-0.12,-0.19,0.38,-0.16,-0.56
2.202,-0.07,-0.12,-0.19,0.30,-0.18,-0.45
2.209,-0.07,-0.12,-0.19,0.27,-0.19,-0.36
2.211,-0.06,-0.15,-0.20,0.27,-0.19,-0.36
2.213,-0.06,-0.15,-0.20,0.22,-0.18,-0.25
2.213,-0.05,-0.16,-0.21,0.22,-0.18,-0.25
2.217,-0.04,-0.16,-0.21,0.22,-0.18,-0.25
2.218,-0.04,-0.16,-0.21,0.18,-0.24,-0.17
2.222,-0.02,-0.14,-0.21,0.18,-0.24,-0.17
2.223,-0.02,-0.14,-0.21,0.22,-0.26,-0.12
2.227,-0.00,-0.10,-0.20,0.22,-0.26,-0.12
2.229,-0.00,-0.10,-0.20,0.24,-0.32,-0.05
2.233,-0.00,-0.10,-0.20,0.32,-0.34,-0.00
2.234,0.01,-0.06,-0.20,0.32,-0.34,-0.00
2.237,0.03,-0.00,-0.20,0.32,-0.34,-0.00
2.238,0.03,-0.00,-0.20,0.35,-0.35,-0.05
2.243,0.05,0.05,-0.21,0.35,-0.35,-0.05
2.245,0.05,0.05,-0.21,0.39,-0.37,-0.10
2.249,0.05,0.05,-0.21,0.44,-0.38,-0.20
2.25,0.07,0.10,-0.23,0.44,-0.38,-0.20
2.252,0.07,0.10,-0.23,0.43,-0.36,-0.35
2.253,0.08,0.15,-0.25,0.43,-0.36,-0.35
2.264,0.08,0.19,-0.27,0.43,-0.36,-0.35
2.265,0.08,0.19,-0.27,0.39,-0.39,-0.47
2.266,0.08,0.19,-0.27,0.37,-0.43,-0.65
2.269,0.09,0.21,-0.28,0.37,-0.43,-0.65
2.27,0.07,0.24,-0.30,0.37,-0.43,-0.65
2.271,0.07,0.24,-0.30,0.34,-0.45,-0.77
2.272,0.07,0.24,-0.30,0.29,-0.50,-0.91
2.274,0.06,0.25,-0.31,0.29,-0.50,-0.91
2.277,0.06,0.25,-0.31,0.25,-0.56,-1.02
2.279,0.04,0.25,-0.32,0.25,-0.56,-1.02
2.282,0.02,0.24,-0.33,0.25,-0.56,-1.02
2.283,0.02,0.24,-0.33,0.24,-0.63,-1.11
2.288,0.02,0.24,-0.33,0.25,-0.68,-1.15
2.289,-0.02,0.22,-0.34,0.25,-0.68,-1.15
2.297,-0.02,0.22,-0.34,0.24,-0.70,-1.16
2.299,-0.05,0.20,-0.35,0.24,-0.70,-1.16
2.3,-0.08,0.16,-0.35,0.24,-0.70,-1.16
2.301,-0.08,0.16,-0.35,0.17,-0.73,-1.14
2.302,-0.12,0.10,-0.35,0.17,-0.73,-1.14
2.303,-0.12,0.10,-0.35,0.16,-0.74,-1.06
2.308,-0.12,0.10,-0.35,0.11,-0.73,-0.87
2.31,-0.16,0.04,-0.36,0.11,-0.73,-0.87
2.312,-0.19,-0.04,-0.35,0.11,-0.73,-0.87
2.313,-0.19,-0.04,-0.35,0.07,-0.69,-0.65
2.317,-0.22,-0.12,-0.34,0.07,-0.69,-0.65
2.318,-0.22,-0.12,-0.34,-0.02,-0.63,-0.36
2.322,-0.25,-0.20,-0.33,-0.02,-0.63,-0.36
2.323,-0.25,-0.20,-0.33,-0.07,-0.62,-0.05
2.327,-0.26,-0.28,-0.31,-0.07,-0.62,-0.05
2.329,-0.26,-0.28,-0.31,-0.09,-0.59,0.28
2.332,-0.27,-0.34,-0.29,-0.09,-0.59,0.28
2.333,-0.27,-0.34,-0.29,-0.14,-0.57,0.63
2.337,-0.26,-0.39,-0.26,-0.14,-0.57,0.63
2.338,-0.26,-0.39,-0.26,-0.14,-0.57,0.94
2.344,-0.26,-0.39,-0.26,-0.10,-0.54,1.25
2.345,-0.25,-0.44,-0.25,-0.10,-0.54,1.25
2.347,-0.25,-0.44,-0.25,-0.10,-0.51,1.54
2.348,-0.22,-0.48,-0.23,-0.10,-0.51,1.54
2.352,-0.20,-0.52,-0.21,-0.10,-0.51,1.54
2.353,-0.20,-0.52,-0.21,-0.11,-0.47,1.81
2.359,-0.20,-0.52,-0.21,-0.13,-0.42,2.06
2.361,-0.17,-0.54,-0.19,-0.13,-0.42,2.06
2.363,-0.17,-0.54,-0.19,-0.20,-0.42,2.24
2.364,-0.14,-0.54,-0.17,-0.20,-0.42,2.24
2.368,-0.11,-0.54,-0.14,-0.20,-0.42,2.24
2.369,-0.11,-0.54,-0.14,-0.21,-0.41,2.42
2.373,-0.11,-0.54,-0.14,-0.25,-0.40,2.56
2.374,-0.08,-0.52,-0.11,-0.25,-0.40,2.56
2.378,-0.08,-0.52,-0.11,-0.27,-0.35,2.65
2.381,-0.05,-0.50,-0.08,-0.27,-0.35,2.65
2.383,-0.05,-0.50,-0.08,-0.27,-0.32,2.74
2.385,-0.02,-0.46,-0.04,-0.27,-0.32,2.74
2.389,-0.02,-0.46,-0.04,-0.24,-0.34,2.70
2.39,0.01,-0.40,-0.00,-0.24,-0.34,2.70
2.395,0.01,-0.40,-0.00,-0.18,-0.31,2.65
2.397,0.05,-0.33,0.04,-0.18,-0.31,2.65
2.398,0.09,-0.24,0.07,-0.18,-0.31,2.65
2.399,0.09,-0.24,0.07,-0.14,-0.26,2.51
2.403,0.13,-0.14,0.10,-0.14,-0.26,2.51
2.404,0.13,-0.14,0.10,-0.06,-0.26,2.27
2.409,0.13,-0.14,0.10,0.04,-0.23,1.98
2.41,0.17,-0.04,0.13,0.04,-0.23,1.98
2.413,0.17,-0.04,0.13,0.15,-0.23,1.58
2.414,0.21,0.06,0.16,0.15,-0.23,1.58
2.418,0.24,0.14,0.17,0.15,-0.23,1.58
2.419,0.24,0.14,0.17,0.29,-0.16,1.15
2.432,0.24,0.14,0.17,0.33,-0.09,0.77
2.434,0.26,0.20,0.18,0.33,-0.09,0.77
2.435,0.27,0.24,0.18,0.33,-0.09,0.77
2.436,0.27,0.24,0.18,0.39,-0.01,0.34
2.437,0.27,0.24,0.18,0.46,0.06,-0.07
2.438,0.28,0.27,0.18,0.46,0.06,-0.07
2.44,0.28,0.27,0.18,0.51,0.11,-0.47
2.441,0.27,0.28,0.18,0.51,0.11,-0.47
2.445,0.27,0.28,0.18,0.59,0.16,-0.82
2.447,0.26,0.28,0.18,0.59,0.16,-0.82
2.449,0.24,0.27,0.17,0.59,0.16,-0.82
2.45,0.24,0.27,0.17,0.61,0.17,-1.07
2.454,0.24,0.27,0.17,0.65,0.25,-1.30
2.455,0.21,0.24,0.16,0.65,0.25,-1.30
2.46,0.18,0.20,0.15,0.65,0.25,-1.30
2.461,0.18,0.20,0.15,0.68,0.29,-1.42
2.464,0.15,0.15,0.14,0.68,0.29,-1.42
2.465,0.15,0.15,0.14,0.67,0.28,-1.54
2.469,0.12,0.09,0.13,0.67,0.28,-1.54
2.47,0.12,0.09,0.13,0.64,0.36,-1.57
2.476,0.09,0.03,0.11,0.64,0.36,-1.57
2.478,0.09,0.03,0.11,0.61,0.33,-1.58
2.48,0.09,0.03,0.11,0.55,0.33,-1.55
2.481,0.05,-0.04,0.11,0.55,0.33,-1.55
2.484,0.01,-0.10,0.10,0.55,0.33,-1.55
2.484,0.01,-0.10,0.10,0.49,0.34,-1.51
2.489,-0.01,-0.15,0.10,0.49,0.34,-1.51
2.49,-0.01,-0.15,0.10,0.48,0.34,-1.31
2.494,-0.03,-0.20,0.09,0.48,0.34,-1.31
2.497,-0.03,-0.20,0.09,0.43,0.32,-1.08
2.499,-0.03,-0.20,0.09,0.39,0.32,-0.86
2.5,-0.04,-0.26,0.08,0.39,0.32,-0.86
2.504,-0.04,-0.26,0.08,0.39,0.34,-0.60
2.505,-0.05,-0.30,0.07,0.39,0.34,-0.60
2.517,-0.05,-0.30,0.07,0.34,0.37,-0.39
2.518,-0.03,-0.33,0.06,0.34,0.37,-0.39
2.519,-0.03,-0.33,0.06,0.32,0.35,-0.18
2.519,-0.02,-0.35,0.05,0.32,0.35,-0.18
2.52,-0.02,-0.35,0.05,0.29,0.32,-0.00
2.523,0.01,-0.36,0.04,0.29,0.32,-0.00
2.525,0.01,-0.36,0.04,0.27,0.24,0.10
2.526,0.03,-0.35,0.03,0.27,0.24,0.10
2.53,0.05,-0.33,0.02,0.27,0.24,0.10
2.532,0.05,-0.33,0.02,0.26,0.23,0.15
2.534,0.05,-0.33,0.02,0.24,0.17,0.16
2.535,0.07,-0.30,0.01,0.24,0.17,0.16
2.539,0.09,-0.27,0.01,0.24,0.17,0.16
2.54,0.09,-0.27,0.01,0.18,0.15,0.15
2.545,0.09,-0.24,0.00,0.18,0.15,0.15
2.546,0.09,-0.24,0.00,0.16,0.17,0.06
2.549,0.09,-0.24,0.00,0.11,0.16,0.03
2.55,0.09,-0.20,-0.00,0.11,0.16,0.03
2.554,0.09,-0.20,-0.00,0.05,0.15,0.01
2.555,0.09,-0.16,-0.00,0.05,0.15,0.01
2.564,0.09,-0.16,-0.00,0.00,0.22,-0.01
2.566,0.08,-0.14,0.00,0.00,0.22,-0.01
2.567,0.06,-0.11,0.00,0.00,0.22,-0.01
2.568,0.06,-0.11,0.00,-0.04,0.20,-0.08
2.569,0.06,-0.11,0.00,-0.05,0.21,-0.11
2.57,0.05,-0.09,0.01,-0.05,0.21,-0.11
2.575,0.04,-0.07,0.01,-0.05,0.21,-0.11
2.576,0.04,-0.07,0.01,-0.04,0.22,-0.11
2.579,0.04,-0.07,0.01,-0.04,0.20,-0.11
2.58,0.02,-0.06,0.02,-0.04,0.20,-0.11
2.584,0.02,-0.06,0.02,-0.06,0.17,-0.14
2.585,0.01,-0.05,0.02,-0.06,0.17,-0.14
2.589,0.01,-0.05,0.02,-0.07,0.17,-0.10
2.59,0.01,-0.04,0.02,-0.07,0.17,-0.10
2.594,0.01,-0.04,0.02,-0.12,0.18,-0.13
2.596,0.00,-0.03,0.03,-0.12,0.18,-0.13
2.599,-0.00,-0.03,0.04,-0.12,0.18,-0.13
2.6,-0.00,-0.03,0.04,-0.17,0.19,-0.13
2.604,-0.00,-0.03,0.04,-0.18,0.19,-0.15
2.605,-0.00,-0.03,0.06,-0.18,0.19,-0.15
2.611,0.00,-0.03,0.07,-0.18,0.19,-0.15
2.613,0.00,-0.03,0.07,-0.18,0.20,-0.10
2.616,0.00,-0.03,0.07,-0.17,0.23,-0.03
2.617,0.01,-0.03,0.09,-0.17,0.23,-0.03
2.62,0.02,-0.04,0.10,-0.17,0.23,-0.03
2.62,0.02,-0.04,0.10,-0.11,0.23,-0.01
2.629,0.04,-0.05,0.11,-0.11,0.23,-0.01
2.631,0.04,-0.05,0.11,-0.07,0.26,0.01
2.632,0.06,-0.04,0.12,-0.07,0.26,0.01
2.632,0.06,-0.04,0.12,-0.02,0.22,0.03
2.634,0.06,-0.04,0.12,0.03,0.25,0.03
2.635,0.08,-0.04,0.13,0.03,0.25,0.03
2.642,0.08,-0.04,0.13,0.06,0.29,0.01
2.644,0.11,-0.03,0.13,0.06,0.29,0.01
2.645,0.11,-0.03,0.13,0.03,0.28,-0.02
2.646,0.13,-0.02,0.13,0.03,0.28,-0.02
2.65,0.13,-0.02,0.13,0.02,0.34,-0.09
2.651,0.16,-0.01,0.13,0.02,0.34,-0.09
2.655,0.16,-0.01,0.13,0.06,0.33,-0.15
2.656,0.18,0.00,0.12,0.06,0.33,-0.15
2.661,0.19,0.01,0.12,0.06,0.33,-0.15
2.663,0.19,0.01,0.12,0.06,0.31,-0.25
2.666,0.19,0.01,0.12,0.07,0.29,-0.37
2.667,0.20,0.03,0.11,0.07,0.29,-0.37
2.671,0.21,0.04,0.11,0.07,0.29,-0.37
2.672,0.21,0.04,0.11,0.06,0.26,-0.54
2.677,0.21,0.04,0.11,0.03,0.26,-0.69
2.681,0.21,0.06,0.10,0.03,0.26,-0.69
2.682,0.19,0.07,0.10,0.03,0.26,-0.69
2.683,0.19,0.07,0.10,-0.00,0.28,-0.73
2.685,0.19,0.07,0.10,-0.03,0.30,-0.84
2.686,0.18,0.08,0.10,-0.03,0.30,-0.84
2.692,0.18,0.08,0.10,-0.04,0.30,-0.90
2.694,0.16,0.09,0.10,-0.04,0.30,-0.90
2.695,0.16,0.09,0.10,-0.07,0.31,-0.93
2.696,0.13,0.10,0.10,-0.07,0.31,-0.93
2.7,0.11,0.10,0.10,-0.07,0.31,-0.93
2.701,0.11,0.10,0.10,-0.03,0.33,-0.93
2.705,0.11,0.10,0.10,-0.02,0.31,-0.92
2.706,0.09,0.11,0.10,-0.02,0.31,-0.92
2.715,0.09,0.11,0.10,-0.04,0.33,-0.89
2.717,0.07,0.12,0.09,-0.04,0.33,-0.89
2.72,0.05,0.13,0.08,-0.04,0.33,-0.89
2.721,0.05,0.13,0.08,-0.01,0.37,-0.86
2.722,0.03,0.13,0.08,-0.01,0.37,-0.86
2.723,0.03,0.13,0.08,-0.08,0.34,-0.83
2.728,0.02,0.13,0.07,-0.08,0.34,-0.83
2.731,0.02,0.13,0.07,-0.15,0.38,-0.81
2.732,0.01,0.14,0.07,-0.15,0.38,-0.81
2.732,0.01,0.14,0.07,-0.17,0.37,-0.74
2.737,0.01,0.14,0.07,-0.17,0.37,-0.74
2.738,0.01,0.14,0.07,-0.19,0.31,-0.73
2.742,-0.00,0.14,0.08,-0.19,0.31,-0.73
2.743,-0.00,0.14,0.08,-0.24,0.31,-0.70
2.746,-0.00,0.14,0.08,-0.27,0.29,-0.74
2.747,-0.00,0.14,0.08,-0.27,0.29,-0.74
2.751,-0.00,0.14,0.08,-0.24,0.26,-0.72
2.751,-0.00,0.14,0.09,-0.24,0.26,-0.72
2.756,-0.00,0.14,0.09,-0.24,0.28,-0.63
2.757,-0.00,0.12,0.10,-0.24,0.28,-0.63
2.771,-0.00,0.12,0.10,-0.26,0.27,-0.65
2.772,-0.00,0.11,0.11,-0.26,0.27,-0.65
2.773,-0.00,0.11,0.11,-0.24,0.23,-0.60
2.775,0.00,0.10,0.12,-0.24,0.23,-0.60
2.778,0.00,0.10,0.12,-0.21,0.25,-0.53
2.78,0.00,0.08,0.13,-0.21,0.25,-0.53
2.782,0.01,0.06,0.14,-0.21,0.25,-0.53
2.783,0.01,0.06,0.14,-0.21,0.23,-0.50
2.784,0.01,0.04,0.15,-0.21,0.23,-0.50
2.785,0.01,0.04,0.15,-0.21,0.21,-0.47
2.786,0.01,0.03,0.17,-0.21,0.21,-0.47
2.787,0.01,0.03,0.17,-0.17,0.18,-0.44
2.792,0.01,0.03,0.17,-0.18,0.21,-0.39
2.793,0.02,0.01,0.18,-0.18,0.21,-0.39
2.796,0.02,-0.00,0.19,-0.18,0.21,-0.39
2.797,0.02,-0.00,0.19,-0.16,0.17,-0.33
2.801,0.02,-0.00,0.19,-0.11,0.18,-0.27
2.802,0.01,-0.01,0.20,-0.11,0.18,-0.27
2.808,0.01,-0.01,0.20,-0.08,0.17,-0.25
2.81,0.01,-0.02,0.21,-0.08,0.17,-0.25
2.811,0.01,-0.02,0.22,-0.08,0.17,-0.25
2.812,0.01,-0.02,0.22,-0.02,0.15,-0.22
2.816,0.01,-0.02,0.22,0.01,0.14,-0.16
2.817,0.00,-0.02,0.22,0.01,0.14,-0.16
2.821,0.00,-0.02,0.22,0.01,0.14,-0.08
2.822,-0.00,-0.02,0.23,0.01,0.14,-0.08
2.826,-0.00,-0.02,0.23,0.06,0.14,0.00
2.827,-0.01,-0.02,0.23,0.06,0.14,0.00
2.831,-0.02,-0.01,0.22,0.06,0.14,0.00
2.832,-0.02,-0.01,0.22,0.13,0.13,0.04
2.836,-0.02,-0.01,0.22,0.24,0.13,0.11
2.837,-0.02,0.01,0.22,0.24,0.13,0.11
2.852,-0.03,0.02,0.21,0.24,0.13,0.11
2.855,-0.03,0.02,0.21,0.32,0.11,0.12
2.858,-0.03,0.02,0.21,0.38,0.04,0.11
2.859,-0.04,0.04,0.19,0.38,0.04,0.11
2.86,-0.04,0.04,0.19,0.42,-0.01,0.12
2.861,-0.06,0.06,0.17,0.42,-0.01,0.12
2.862,-0.06,0.06,0.17,0.43,-0.03,0.13
2.863,-0.08,0.06,0.15,0.43,-0.03,0.13
2.864,-0.11,0.06,0.13,0.43,-0.03,0.13
2.865,-0.11,0.06,0.13,0.43,-0.04,0.13
2.867,-0.11,0.06,0.13,0.40,-0.08,0.14
2.869,-0.14,0.05,0.11,0.40,-0.08,0.14
2.872,-0.18,0.03,0.10,0.40,-0.08,0.14
2.873,-0.18,0.03,0.10,0.35,-0.10,0.24
2.877,-0.18,0.03,0.10,0.32,-0.13,0.33
2.879,-0.22,0.01,0.09,0.32,-0.13,0.33
2.882,-0.25,-0.01,0.08,0.32,-0.13,0.33
2.883,-0.25,-0.01,0.08,0.30,-0.17,0.48
2.887,-0.25,-0.01,0.08,0.26,-0.23,0.65
2.887,-0.29,-0.04,0.08,0.26,-0.23,0.65
2.892,-0.32,-0.08,0.08,0.26,-0.23,0.65
2.894,-0.32,-0.08,0.08,0.22,-0.23,0.88
2.897,-0.32,-0.08,0.08,0.20,-0.26,1.08
2.898,-0.35,-0.10,0.08,0.20,-0.26,1.08
2.902,-0.37,-0.12,0.08,0.20,-0.26,1.08
2.902,-0.37,-0.12,0.08,0.19,-0.27,1.24
2.911,-0.38,-0.15,0.08,0.19,-0.27,1.24
2.913,-0.38,-0.15,0.08,0.17,-0.25,1.51
2.914,-0.40,-0.18,0.09,0.17,-0.25,1.51
2.915,-0.40,-0.18,0.09,0.14,-0.25,1.78
2.917,-0.40,-0.18,0.09,0.12,-0.19,2.07
2.918,-0.40,-0.20,0.09,0.12,-0.19,2.07
2.922,-0.40,-0.21,0.10,0.12,-0.19,2.07
2.923,-0.40,-0.21,0.10,0.09,-0.18,2.33
2.927,-0.39,-0.22,0.11,0.09,-0.18,2.33
2.929,-0.39,-0.22,0.11,-0.00,-0.17,2.55
2.932,-0.39,-0.22,0.11,-0.02,-0.13,2.76
2.933,-0.38,-0.21,0.12,-0.02,-0.13,2.76
2.937,-0.38,-0.21,0.12,-0.07,-0.12,2.94
2.938,-0.36,-0.18,0.13,-0.07,-0.12,2.94
2.942,-0.33,-0.14,0.14,-0.07,-0.12,2.94
2.944,-0.33,-0.14,0.14,-0.10,-0.13,3.07
2.947,-0.33,-0.14,0.14,-0.09,-0.14,3.17
2.948,-0.30,-0.10,0.16,-0.09,-0.14,3.17
2.952,-0.28,-0.04,0.17,-0.09,-0.14,3.17
2.953,-0.28,-0.04,0.17,-0.10,-0.14,3.17
2.959,-0.28,-0.04,0.17,-0.09,-0.16,3.15
2.962,-0.24,0.03,0.19,-0.09,-0.16,3.15
2.963,-0.24,0.03,0.19,-0.05,-0.17,3.07
2.964,-0.21,0.10,0.21,-0.05,-0.17,3.07
2.967,-0.19,0.18,0.24,-0.05,-0.17,3.07
2.968,-0.19,0.18,0.24,0.02,-0.22,2.85
2.972,-0.17,0.25,0.25,0.02,-0.22,2.85
2.973,-0.17,0.25,0.25,0.08,-0.23,2.59
2.983,-0.17,0.25,0.25,0.14,-0.20,2.32
2.985,-0.16,0.32,0.26,0.14,-0.20,2.32
2.987,-0.16,0.32,0.26,0.17,-0.17,1.99
2.988,-0.16,0.39,0.27,0.17,-0.17,1.99
2.988,-0.16,0.39,0.27,0.19,-0.16,1.72
2.99,-0.17,0.43,0.27,0.19,-0.16,1.72
2.995,-0.17,0.43,0.27,0.14,-0.14,1.48
2.998,-0.19,0.46,0.27,0.14,-0.14,1.48
2.999,-0.19,0.46,0.27,0.11,-0.11,1.31
3.001,-0.21,0.46,0.27,0.11,-0.11,1.31
3.003,-0.21,0.46,0.27,0.05,-0.06,1.18
3.004,-0.24,0.44,0.26,0.05,-0.06,1.18
3.01,-0.24,0.44,0.26,-0.02,-0.04,1.09
3.012,-0.26,0.40,0.26,-0.02,-0.04,1.09
3.024,-0.28,0.35,0.26,-0.02,-0.04,1.09
3.025,-0.28,0.35,0.26,-0.12,-0.06,1.07
3.027,-0.28,0.35,0.26,-0.20,-0.09,1.12
3.028,-0.30,0.27,0.27,-0.20,-0.09,1.12
3.031,-0.31,0.19,0.27,-0.20,-0.09,1.12
3.032,-0.31,0.19,0.27,-0.30,-0.15,1.29
3.033,-0.31,0.19,0.27,-0.35,-0.21,1.46
3.034,-0.32,0.11,0.28,-0.35,-0.21,1.46
3.034,-0.32,0.11,0.28,-0.44,-0.32,1.70
3.035,-0.31,0.02,0.30,-0.44,-0.32,1.70
3.038,-0.31,0.02,0.30,-0.48,-0.36,2.01
3.041,-0.30,-0.05,0.33,-0.48,-0.36,2.01
3.042,-0.27,-0.10,0.37,-0.48,-0.36,2.01
3.044,-0.27,-0.10,0.37,-0.46,-0.40,2.20
3.048,-0.27,-0.10,0.37,-0.41,-0.48,2.34
3.049,-0.22,-0.13,0.40,-0.41,-0.48,2.34
3.053,-0.22,-0.13,0.40,-0.31,-0.58,2.51
3.053,-0.16,-0.13,0.44,-0.31,-0.58,2.51
3.058,-0.16,-0.13,0.44,-0.19,-0.62,2.54
3.06,-0.11,-0.12,0.47,-0.19,-0.62,2.54
3.063,-0.05,-0.09,0.50,-0.19,-0.62,2.54
3.064,-0.05,-0.09,0.50,-0.02,-0.65,2.55
3.068,-0.05,-0.09,0.50,0.11,-0.62,2.49
3.069,0.01,-0.06,0.52,0.11,-0.62,2.49
3.073,0.01,-0.06,0.52,0.23,-0.59,2.31
3.074,0.07,-0.01,0.53,0.23,-0.59,2.31
3.078,0.13,0.05,0.53,0.23,-0.59,2.31
3.079,0.13,0.05,0.53,0.39,-0.57,2.08
3.083,0.17,0.10,0.52,0.39,-0.57,2.08
3.084,0.17,0.10,0.52,0.48,-0.53,1.80
3.088,0.20,0.15,0.50,0.48,-0.53,1.80
3.089,0.20,0.15,0.50,0.60,-0.51,1.47
3.097,0.20,0.15,0.50,0.68,-0.45,1.12
3.099,0.22,0.19,0.48,0.68,-0.45,1.12
3.1,0.22,0.21,0.45,0.68,-0.45,1.12
3.101,0.22,0.21,0.45,0.71,-0.37,0.75
3.103,0.22,0.21,0.45,0.74,-0.38,0.46
3.104,0.21,0.23,0.41,0.74,-0.38,0.46
3.108,0.21,0.23,0.41,0.77,-0.44,0.20
3.11,0.20,0.25,0.36,0.77,-0.44,0.20
3.113,0.17,0.26,0.32,0.77,-0.44,0.20
3.114,0.17,0.26,0.32,0.74,-0.44,-0.07
3.118,0.13,0.26,0.27,0.74,-0.44,-0.07
3.119,0.13,0.26,0.27,0.71,-0.42,-0.29
3.123,0.13,0.26,0.27,0.70,-0.48,-0.46
3.124,0.09,0.26,0.23,0.70,-0.48,-0.46
3.129,0.09,0.26,0.23,0.60,-0.56,-0.56
3.131,0.06,0.27,0.18,0.60,-0.56,-0.56
3.133,0.02,0.27,0.14,0.60,-0.56,-0.56
3.134,0.02,0.27,0.14,0.49,-0.63,-0.60
3.138,-0.02,0.26,0.10,0.49,-0.63,-0.60
3.14,-0.02,0.26,0.10,0.40,-0.67,-0.66
3.144,-0.02,0.26,0.10,0.23,-0.74,-0.61
3.146,-0.04,0.26,0.06,0.23,-0.74,-0.61
3.148,-0.04,0.26,0.06,0.05,-0.82,-0.63
3.149,-0.07,0.24,0.03,0.05,-0.82,-0.63
3.153,-0.08,0.22,0.01,0.05,-0.82,-0.63
3.154,-0.08,0.22,0.01,-0.10,-0.91,-0.56
3.158,-0.08,0.22,0.01,-0.20,-1.02,-0.55
3.161,-0.09,0.21,-0.00,-0.20,-1.02,-0.55
3.164,-0.09,0.21,-0.00,-0.34,-1.17,-0.49
3.165,-0.10,0.19,-0.00,-0.34,-1.17,-0.49
3.168,-0.10,0.19,-0.00,-0.43,-1.29,-0.39
3.169,-0.10,0.16,0.00,-0.43,-1.29,-0.39
3.176,-0.10,0.16,0.00,-0.51,-1.34,-0.37
3.178,-0.09,0.14,0.01,-0.51,-1.34,-0.37
3.179,-0.09,0.14,0.01,-0.59,-1.39,-0.30
3.18,-0.08,0.11,0.03,-0.59,-1.39,-0.30
3.184,-0.06,0.09,0.06,-0.59,-1.39,-0.30
3.185,-0.06,0.09,0.06,-0.69,-1.42,-0.23
3.189,-0.04,0.07,0.09,-0.69,-1.42,-0.23
3.19,-0.04,0.07,0.09,-0.68,-1.43,-0.19
3.194,-0.02,0.06,0.12,-0.68,-1.43,-0.19
3.196,-0.02,0.06,0.12,-0.63,-1.44,-0.08
3.199,0.01,0.04,0.15,-0.63,-1.44,-0.08
3.199,0.01,0.04,0.15,-0.55,-1.42,-0.02
3.204,0.04,0.04,0.17,-0.55,-1.42,-0.02
3.205,0.04,0.04,0.17,-0.50,-1.40,0.08
3.208,0.07,0.02,0.18,-0.50,-1.40,0.08
3.211,0.07,0.02,0.18,-0.44,-1.36,0.10
3.214,0.07,0.02,0.18,-0.37,-1.32,0.06
3.215,0.09,0.01,0.19,-0.37,-1.32,0.06
3.219,0.09,0.01,0.19,-0.31,-1.31,0.03
3.22,0.12,0.01,0.19,-0.31,-1.31,0.03
3.225,0.13,0.00,0.19,-0.31,-1.31,0.03
3.227,0.13,0.00,0.19,-0.30,-1.32,-0.04
3.229,0.13,0.00,0.19,-0.28,-1.26,-0.10
3.23,0.14,0.01,0.19,-0.28,-1.26,-0.10
3.235,0.14,0.01,0.19,-0.26,-1.21,-0.14
3.235,0.14,0.01,0.18,-0.26,-1.21,-0.14
3.239,0.14,0.02,0.18,-0.26,-1.21,-0.14
3.241,0.14,0.02,0.18,-0.24,-1.22,-0.22
3.247,0.12,0.03,0.17,-0.24,-1.22,-0.22
3.251,0.12,0.03,0.17,-0.23,-1.19,-0.28
3.253,0.11,0.05,0.17,-0.23,-1.19,-0.28
3.255,0.11,0.05,0.17,-0.25,-1.16,-0.29
3.257,0.09,0.06,0.16,-0.25,-1.16,-0.29
3.258,0.09,0.06,0.16,-0.23,-1.15,-0.29
3.26,0.09,0.06,0.16,-0.19,-1.10,-0.33
3.261,0.07,0.07,0.16,-0.19,-1.10,-0.33
3.274,0.07,0.07,0.16,-0.18,-1.10,-0.30
3.275,0.05,0.08,0.15,-0.18,-1.10,-0.30
3.276,0.05,0.08,0.15,-0.19,-1.11,-0.28
3.279,0.03,0.09,0.15,-0.19,-1.11,-0.28
3.281,0.03,0.09,0.15,-0.17,-1.08,-0.23
3.282,0.02,0.10,0.14,-0.17,-1.08,-0.23
3.282,0.02,0.11,0.14,-0.17,-1.08,-0.23
3.283,0.02,0.11,0.14,-0.15,-1.07,-0.18
3.284,0.02,0.11,0.13,-0.15,-1.07,-0.18
3.285,0.02,0.11,0.13,-0.12,-1.05,-0.19
3.295,0.02,0.11,0.13,-0.13,-1.08,-0.16
3.297,0.02,0.11,0.13,-0.13,-1.08,-0.16
3.298,0.03,0.12,0.13,-0.13,-1.08,-0.16
3.299,0.03,0.12,0.13,-0.13,-1.09,-0.16
3.301,0.03,0.12,0.13,-0.05,-1.06,-0.19
3.302,0.04,0.12,0.13,-0.05,-1.06,-0.19
3.304,0.04,0.12,0.13,-0.05,-1.06,-0.22
3.305,0.06,0.13,0.13,-0.05,-1.06,-0.22
3.31,0.06,0.13,0.13,-0.05,-1.07,-0.25
3.311,0.07,0.13,0.13,-0.05,-1.07,-0.25
3.314,0.07,0.13,0.13,-0.02,-1.06,-0.29
3.315,0.09,0.12,0.13,-0.02,-1.06,-0.29
3.319,0.09,0.12,0.13,0.04,-1.01,-0.38
3.32,0.11,0.12,0.13,0.04,-1.01,-0.38
3.324,0.12,0.11,0.13,0.04,-1.01,-0.38
3.326,0.12,0.11,0.13,0.05,-1.02,-0.44
3.33,0.12,0.11,0.13,0.10,-1.00,-0.50
3.331,0.14,0.11,0.13,0.10,-1.00,-0.50
3.335,0.14,0.11,0.13,0.14,-0.96,-0.58
3.335,0.15,0.11,0.13,0.14,-0.96,-0.58
3.342,0.15,0.11,0.13,0.20,-1.00,-0.70
3.344,0.16,0.12,0.13,0.20,-1.00,-0.70
3.346,0.17,0.13,0.13,0.20,-1.00,-0.70
3.347,0.17,0.13,0.13,0.27,-0.99,-0.78
3.35,0.17,0.13,0.13,0.29,-0.99,-0.89
3.352,0.18,0.14,0.13,0.29,-0.99,-0.89
3.356,0.18,0.14,0.13,0.34,-0.97,-1.00
3.357,0.18,0.15,0.12,0.34,-0.97,-1.00
3.361,0.18,0.15,0.12,0.38,-0.92,-1.09
3.363,0.18,0.17,0.12,0.38,-0.92,-1.09
3.366,0.18,0.19,0.11,0.38,-0.92,-1.09
3.367,0.18,0.19,0.11,0.41,-0.96,-1.21
3.371,0.18,0.19,0.11,0.42,-0.92,-1.35
3.372,0.17,0.19,0.10,0.42,-0.92,-1.35
3.376,0.16,0.20,0.09,0.42,-0.92,-1.35
3.379,0.16,0.20,0.09,0.46,-0.91,-1.44
3.381,0.16,0.20,0.09,0.44,-0.88,-1.49
3.382,0.15,0.19,0.08,0.44,-0.88,-1.49
3.385,0.15,0.19,0.08,0.42,-0.83,-1.57
3.387,0.15,0.17,0.07,0.42,-0.83,-1.57
3.403,0.15,0.17,0.07,0.44,-0.83,-1.69
3.406,0.14,0.15,0.06,0.44,-0.83,-1.69
3.408,0.14,0.15,0.06,0.48,-0.83,-1.76
3.41,0.13,0.14,0.06,0.48,-0.83,-1.76
3.412,0.11,0.13,0.06,0.48,-0.83,-1.76
3.413,0.11,0.13,0.06,0.50,-0.85,-1.79
3.414,0.10,0.12,0.06,0.50,-0.85,-1.79
3.416,0.10,0.12,0.06,0.51,-0.86,-1.82
3.418,0.10,0.12,0.06,0.51,-0.87,-1.80
3.419,0.09,0.11,0.06,0.51,-0.87,-1.80
3.421,0.08,0.09,0.05,0.51,-0.87,-1.80
3.421,0.08,0.09,0.05,0.50,-0.80,-1.71
3.422,0.08,0.07,0.05,0.50,-0.80,-1.71
3.423,0.08,0.07,0.05,0.48,-0.81,-1.72
3.426,0.08,0.07,0.05,0.45,-0.80,-1.72
3.427,0.07,0.05,0.05,0.45,-0.80,-1.72
3.431,0.07,0.03,0.04,0.45,-0.80,-1.72
3.432,0.07,0.03,0.04,0.41,-0.72,-1.69
3.435,0.07,0.03,0.04,0.41,-0.70,-1.68
3.436,0.07,0.02,0.04,0.41,-0.70,-1.68
3.442,0.08,-0.00,0.04,0.41,-0.70,-1.68
3.444,0.08,-0.00,0.04,0.39,-0.70,-1.63
3.446,0.08,-0.00,0.04,0.38,-0.70,-1.62
3.447,0.08,-0.02,0.03,0.38,-0.70,-1.62
3.45,0.09,-0.03,0.03,0.38,-0.70,-1.62
3.451,0.09,-0.03,0.03,0.41,-0.66,-1.58
3.456,0.09,-0.04,0.02,0.41,-0.66,-1.58
3.457,0.09,-0.04,0.02,0.45,-0.63,-1.57
3.461,0.09,-0.04,0.02,0.42,-0.62,-1.55
3.463,0.09,-0.06,0.01,0.42,-0.62,-1.55
3.466,0.09,-0.06,0.01,0.41,-0.59,-1.52
3.467,0.08,-0.06,0.00,0.41,-0.59,-1.52
3.471,0.08,-0.07,-0.01,0.41,-0.59,-1.52
3.472,0.08,-0.07,-0.01,0.40,-0.52,-1.45
3.476,0.07,-0.08,-0.02,0.40,-0.52,-1.45
3.477,0.07,-0.08,-0.02,0.38,-0.54,-1.43
3.481,0.07,-0.08,-0.02,0.36,-0.49,-1.38
3.483,0.05,-0.09,-0.03,0.36,-0.49,-1.38
3.486,0.04,-0.10,-0.05,0.36,-0.49,-1.38
3.487,0.04,-0.10,-0.05,0.33,-0.45,-1.33
3.5,0.02,-0.11,-0.06,0.33,-0.45,-1.33
3.502,0.02,-0.11,-0.06,0.28,-0.42,-1.23
3.503,-0.00,-0.12,-0.07,0.28,-0.42,-1.23
3.504,-0.00,-0.12,-0.07,0.21,-0.40,-1.13
3.505,-0.02,-0.14,-0.08,0.21,-0.40,-1.13
3.506,-0.02,-0.14,-0.08,0.17,-0.38,-1.05
3.508,-0.02,-0.14,-0.08,0.13,-0.37,-0.89
3.509,-0.03,-0.16,-0.08,0.13,-0.37,-0.89
3.511,-0.03,-0.16,-0.08,0.12,-0.38,-0.70
3.513,-0.04,-0.18,-0.09,0.12,-0.38,-0.70
3.525,-0.06,-0.19,-0.10,0.12,-0.38,-0.70
3.526,-0.06,-0.19,-0.10,0.13,-0.36,-0.62
3.527,-0.06,-0.19,-0.10,0.11,-0.39,-0.52
3.53,-0.06,-0.20,-0.10,0.11,-0.39,-0.52
3.531,-0.06,-0.20,-0.10,0.13,-0.36,-0.38
3.532,-0.07,-0.22,-0.11,0.13,-0.36,-0.38
3.532,-0.07,-0.22,-0.11,0.14,-0.35,-0.20
3.533,-0.06,-0.23,-0.11,0.14,-0.35,-0.20
3.536,-0.06,-0.23,-0.11,0.13,-0.32,-0.06
3.538,-0.06,-0.23,-0.11,0.13,-0.32,-0.06
3.543,-0.06,-0.23,-0.11,0.14,-0.33,0.01
3.545,-0.04,-0.24,-0.12,0.14,-0.33,0.01
3.546,-0.04,-0.24,-0.12,0.16,-0.31,0.11
3.547,-0.03,-0.25,-0.12,0.16,-0.31,0.11
3.551,-0.03,-0.25,-0.12,0.19,-0.29,0.19
3.552,-0.02,-0.25,-0.13,0.19,-0.29,0.19
3.556,-0.02,-0.25,-0.13,0.23,-0.30,0.24
3.558,-0.01,-0.23,-0.14,0.23,-0.30,0.24
3.562,-0.01,-0.23,-0.14,0.22,-0.30,0.28
3.563,0.01,-0.22,-0.14,0.22,-0.30,0.28
3.566,0.01,-0.21,-0.15,0.22,-0.30,0.28
3.567,0.01,-0.21,-0.15,0.16,-0.28,0.27
3.571,0.02,-0.20,-0.16,0.16,-0.28,0.27
3.572,0.02,-0.20,-0.16,0.14,-0.24,0.32
3.576,0.02,-0.19,-0.17,0.14,-0.24,0.32
3.578,0.02,-0.19,-0.17,0.09,-0.22,0.30
3.581,0.01,-0.18,-0.17,0.09,-0.22,0.30
3.582,0.01,-0.18,-0.17,0.07,-0.18,0.26
3.586,0.01,-0.17,-0.18,0.07,-0.18,0.26
3.587,0.01,-0.17,-0.18,0.07,-0.15,0.30
3.592,0.00,-0.15,-0.19,0.07,-0.15,0.30
3.594,0.00,-0.15,-0.19,0.06,-0.14,0.29
3.596,-0.01,-0.13,-0.20,0.06,-0.14,0.29
3.597,-0.01,-0.13,-0.20,0.04,-0.12,0.27
3.602,-0.01,-0.13,-0.20,0.01,-0.13,0.24
3.602,-0.02,-0.11,-0.22,0.01,-0.13,0.24
3.606,-0.02,-0.11,-0.22,-0.04,-0.11,0.22
3.607,-0.03,-0.08,-0.22,-0.04,-0.11,0.22
3.612,-0.04,-0.05,-0.23,-0.04,-0.11,0.22
3.614,-0.04,-0.05,-0.23,-0.07,-0.11,0.14
3.617,-0.05,-0.02,-0.24,-0.07,-0.11,0.14
3.618,-0.05,-0.02,-0.24,-0.14,-0.12,0.08
3.622,-0.05,-0.02,-0.24,-0.18,-0.11,0.03
3.623,-0.06,0.02,-0.24,-0.18,-0.11,0.03
3.633,-0.07,0.06,-0.23,-0.18,-0.11,0.03
3.634,-0.07,0.06,-0.23,-0.26,-0.12,-0.04
3.635,-0.07,0.06,-0.23,-0.29,-0.10,-0.14
3.637,-0.07,0.09,-0.23,-0.29,-0.10,-0.14
3.638,-0.07,0.09,-0.23,-0.30,-0.12,-0.25
3.639,-0.07,0.12,-0.22,-0.30,-0.12,-0.25
3.644,-0.07,0.12,-0.22,-0.30,-0.13,-0.36
3.646,-0.08,0.14,-0.21,-0.30,-0.13,-0.36
3.648,-0.08,0.14,-0.20,-0.30,-0.13,-0.36
3.648,-0.08,0.14,-0.20,-0.31,-0.11,-0.47
3.653,-0.08,0.14,-0.20,-0.35,-0.06,-0.56
3.654,-0.08,0.14,-0.19,-0.35,-0.06,-0.56
3.659,-0.08,0.14,-0.18,-0.35,-0.06,-0.56
3.66,-0.08,0.14,-0.18,-0.33,-0.04,-0.64
3.663,-0.08,0.14,-0.18,-0.33,-0.01,-0.71
3.664,-0.09,0.12,-0.17,-0.33,-0.01,-0.71
3.667,-0.09,0.11,-0.17,-0.33,-0.01,-0.71
3.668,-0.09,0.11,-0.17,-0.32,0.06,-0.76
3.672,-0.09,0.11,-0.17,-0.28,0.11,-0.78
3.673,-0.10,0.09,-0.16,-0.28,0.11,-0.78
3.678,-0.10,0.07,-0.16,-0.28,0.11,-0.78
3.68,-0.10,0.07,-0.16,-0.26,0.17,-0.77
3.682,-0.11,0.05,-0.16,-0.26,0.17,-0.77
3.683,-0.11,0.05,-0.16,-0.27,0.22,-0.73
3.687,-0.11,0.05,-0.16,-0.29,0.27,-0.72
3.688,-0.12,0.02,-0.15,-0.29,0.27,-0.72
3.694,-0.12,0.02,-0.15,-0.32,0.30,-0.64
3.696,-0.12,-0.00,-0.16,-0.32,0.30,-0.64
3.698,-0.13,-0.02,-0.16,-0.32,0.30,-0.64
3.699,-0.13,-0.02,-0.16,-0.37,0.33,-0.57
3.703,-0.13,-0.05,-0.15,-0.37,0.33,-0.57
3.704,-0.13,-0.05,-0.15,-0.38,0.35,-0.48
3.71,-0.13,-0.05,-0.15,-0.40,0.35,-0.36
3.712,-0.13,-0.07,-0.15,-0.40,0.35,-0.36
3.713,-0.13,-0.07,-0.15,-0.42,0.32,-0.25
3.714,-0.13,-0.10,-0.14,-0.42,0.32,-0.25
3.718,-0.13,-0.10,-0.14,-0.43,0.28,-0.23
3.719,-0.12,-0.11,-0.14,-0.43,0.28,-0.23
3.726,-0.12,-0.11,-0.14,-0.45,0.29,-0.14
3.728,-0.12,-0.13,-0.13,-0.45,0.29,-0.14
3.73,-0.12,-0.14,-0.12,-0.45,0.29,-0.14
3.731,-0.12,-0.14,-0.12,-0.51,0.27,-0.03
3.733,-0.12,-0.14,-0.12,-0.56,0.25,0.06
3.734,-0.12,-0.15,-0.10,-0.56,0.25,0.06
3.739,-0.12,-0.15,-0.10,-0.59,0.26,0.16
3.74,-0.12,-0.16,-0.08,-0.59,0.26,0.16
3.744,-0.12,-0.16,-0.06,-0.59,0.26,0.16
3.746,-0.12,-0.16,-0.06,-0.55,0.26,0.26
3.748,-0.12,-0.16,-0.06,-0.54,0.25,0.36
3.749,-0.13,-0.17,-0.04,-0.54,0.25,0.36
3.753,-0.13,-0.17,-0.04,-0.49,0.28,0.47
3.754,-0.13,-0.16,-0.02,-0.49,0.28,0.47
3.759,-0.13,-0.16,-0.02,-0.47,0.31,0.53
3.761,-0.12,-0.16,-0.00,-0.47,0.31,0.53
3.764,-0.12,-0.16,-0.00,-0.40,0.34,0.62
3.765,-0.12,-0.14,0.01,-0.40,0.34,0.62
3.777,-0.12,-0.13,0.02,-0.40,0.34,0.62
3.779,-0.12,-0.13,0.02,-0.31,0.38,0.63
3.78,-0.12,-0.13,0.02,-0.23,0.41,0.70
3.781,-0.12,-0.11,0.02,-0.23,0.41,0.70
3.784,-0.12,-0.11,0.02,-0.15,0.46,0.74
3.785,-0.11,-0.10,0.02,-0.15,0.46,0.74
3.786,-0.11,-0.08,0.02,-0.15,0.46,0.74
3.787,-0.11,-0.08,0.02,-0.08,0.47,0.75
3.788,-0.10,-0.07,0.00,-0.08,0.47,0.75
3.789,-0.10,-0.07,0.00,-0.03,0.49,0.73
3.8,-0.10,-0.06,-0.01,-0.03,0.49,0.73
3.801,-0.10,-0.06,-0.01,-0.00,0.56,0.67
3.803,-0.10,-0.04,-0.02,-0.00,0.56,0.67
3.804,-0.10,-0.04,-0.02,0.05,0.54,0.65
3.805,-0.10,-0.04,-0.02,0.08,0.53,0.71
3.806,-0.09,-0.01,-0.04,0.08,0.53,0.71
3.809,-0.09,-0.01,-0.04,0.11,0.51,0.67
3.811,-0.09,-0.00,-0.05,0.11,0.51,0.67
3.813,-0.08,-0.00,-0.06,0.11,0.51,0.67
3.814,-0.08,-0.00,-0.06,0.16,0.48,0.60
3.818,-0.08,-0.00,-0.06,0.18,0.44,0.52
3.819,-0.08,0.00,-0.07,0.18,0.44,0.52
3.823,-0.08,0.00,-0.07,0.18,0.42,0.50
3.824,-0.07,0.01,-0.09,0.18,0.42,0.50
3.828,-0.07,0.00,-0.11,0.18,0.42,0.50
3.83,-0.07,0.00,-0.11,0.16,0.42,0.43
3.833,-0.07,0.00,-0.12,0.16,0.42,0.43
3.834,-0.07,0.00,-0.12,0.17,0.44,0.41
3.838,-0.07,0.00,-0.12,0.14,0.38,0.39
3.839,-0.06,-0.00,-0.14,0.14,0.38,0.39
3.843,-0.06,-0.00,-0.14,0.09,0.33,0.34
3.845,-0.06,-0.01,-0.15,0.09,0.33,0.34
3.848,-0.06,-0.02,-0.16,0.09,0.33,0.34
3.849,-0.06,-0.02,-0.16,0.08,0.33,0.36
3.853,-0.06,-0.02,-0.16,0.03,0.28,0.37
3.854,-0.06,-0.03,-0.17,0.03,0.28,0.37
3.859,-0.06,-0.05,-0.19,0.03,0.28,0.37
3.86,-0.06,-0.05,-0.19,-0.01,0.22,0.35
3.864,-0.06,-0.07,-0.20,-0.01,0.22,0.35
3.864,-0.06,-0.07,-0.20,-0.08,0.19,0.35
3.868,-0.07,-0.10,-0.21,-0.08,0.19,0.35
3.869,-0.07,-0.10,-0.21,-0.13,0.15,0.39
3.876,-0.09,-0.12,-0.21,-0.13,0.15,0.39
3.877,-0.09,-0.12,-0.21,-0.18,0.07,0.41
3.879,-0.09,-0.12,-0.21,-0.26,0.02,0.46
3.879,-0.10,-0.15,-0.22,-0.26,0.02,0.46
3.884,-0.10,-0.15,-0.22,-0.31,-0.00,0.60
3.885,-0.12,-0.17,-0.21,-0.31,-0.00,0.60
3.889,-0.12,-0.17,-0.21,-0.37,-0.00,0.77
3.89,-0.14,-0.20,-0.21,-0.37,-0.00,0.77
3.894,-0.15,-0.22,-0.20,-0.37,-0.00,0.77
3.895,-0.15,-0.22,-0.20,-0.38,-0.04,0.94
3.901,-0.15,-0.22,-0.20,-0.32,-0.07,1.15
3.902,-0.16,-0.23,-0.20,-0.32,-0.07,1.15
3.904,-0.16,-0.23,-0.20,-0.27,-0.11,1.36
3.905,-0.17,-0.24,-0.19,-0.27,-0.11,1.36
3.92,-0.17,-0.24,-0.19,-0.22,-0.13,1.59
3.921,-0.17,-0.25,-0.18,-0.22,-0.13,1.59
3.922,-0.16,-0.26,-0.17,-0.22,-0.13,1.59
3.923,-0.16,-0.26,-0.17,-0.15,-0.13,1.84
3.925,-0.16,-0.26,-0.17,-0.07,-0.15,2.08
3.926,-0.15,-0.28,-0.16,-0.07,-0.15,2.08
3.927,-0.13,-0.29,-0.15,-0.07,-0.15,2.08
3.928,-0.13,-0.29,-0.15,-0.00,-0.14,2.25
3.929,-0.12,-0.30,-0.14,-0.00,-0.14,2.25
3.93,-0.12,-0.30,-0.14,0.08,-0.13,2.38
3.935,-0.10,-0.28,-0.14,0.08,-0.13,2.38
3.937,-0.10,-0.28,-0.14,0.14,-0.11,2.45
3.939,-0.08,-0.26,-0.13,0.14,-0.11,2.45
3.94,-0.08,-0.26,-0.13,0.19,-0.15,2.48
3.944,-0.08,-0.26,-0.13,0.28,-0.13,2.51
3.946,-0.06,-0.23,-0.12,0.28,-0.13,2.51
3.949,-0.06,-0.23,-0.12,0.35,-0.15,2.48
3.95,-0.05,-0.20,-0.12,0.35,-0.15,2.48
3.954,-0.05,-0.20,-0.12,0.41,-0.14,2.43
3.955,-0.04,-0.17,-0.12,0.41,-0.14,2.43
3.959,-0.03,-0.13,-0.12,0.41,-0.14,2.43
3.961,-0.03,-0.13,-0.12,0.45,-0.14,2.35
3.965,-0.03,-0.13,-0.12,0.47,-0.09,2.18
3.966,-0.02,-0.09,-0.13,0.47,-0.09,2.18
3.969,-0.02,-0.04,-0.13,0.47,-0.09,2.18
3.97,-0.02,-0.04,-0.13,0.48,-0.09,2.03
3.975,-0.02,-0.04,-0.13,0.50,-0.04,1.88
3.978,-0.02,0.01,-0.13,0.50,-0.04,1.88
3.98,-0.02,0.01,-0.13,0.52,-0.01,1.64
3.981,-0.03,0.05,-0.14,0.52,-0.01,1.64
3.984,-0.03,0.09,-0.14,0.52,-0.01,1.64
3.985,-0.03,0.09,-0.14,0.55,0.02,1.44
3.99,-0.04,0.12,-0.15,0.55,0.02,1.44
3.991,-0.04,0.12,-0.15,0.51,0.03,1.22
3.995,-0.05,0.14,-0.15,0.51,0.03,1.22
3.997,-0.05,0.14,-0.15,0.49,0.04,1.04
3.999,-0.07,0.15,-0.16,0.49,0.04,1.04
4.0,-0.07,0.15,-0.16,0.49,0.07,0.90
4.005,-0.08,0.15,-0.16,0.49,0.07,0.90
4.005,-0.08,0.15,-0.16,0.46,0.10,0.79
4.01,-0.09,0.14,-0.17,0.46,0.10,0.79
4.011,-0.09,0.14,-0.17,0.46,0.12,0.70
4.015,-0.09,0.14,-0.17,0.45,0.19,0.66
4.016,-0.09,0.12,-0.17,0.45,0.19,0.66
4.028,-0.09,0.12,-0.17,0.43,0.21,0.65
4.029,-0.10,0.09,-0.18,0.43,0.21,0.65
4.029,-0.10,0.09,-0.18,0.40,0.23,0.65
4.033,-0.10,0.05,-0.18,0.40,0.23,0.65
4.034,-0.10,-0.01,-0.19,0.40,0.23,0.65
4.035,-0.10,-0.01,-0.19,0.34,0.23,0.65
4.036,-0.10,-0.01,-0.19,0.28,0.24,0.66
4.037,-0.10,-0.07,-0.20,0.28,0.24,0.66
4.047,-0.10,-0.14,-0.20,0.28,0.24,0.66
4.049,-0.10,-0.14,-0.20,0.23,0.25,0.78
4.05,-0.09,-0.21,-0.20,0.23,0.25,0.78
4.051,-0.09,-0.21,-0.20,0.18,0.24,0.91
4.052,-0.09,-0.21,-0.20,0.13,0.22,1.04
4.053,-0.08,-0.27,-0.20,0.13,0.22,1.04
4.055,-0.08,-0.27,-0.20,0.11,0.19,1.22
4.056,-0.07,-0.31,-0.19,0.11,0.19,1.22
4.06,-0.05,-0.34,-0.19,0.11,0.19,1.22
4.062,-0.05,-0.34,-0.19,0.10,0.12,1.37
4.065,-0.05,-0.34,-0.19,0.10,0.06,1.50
4.065,-0.03,-0.35,-0.18,0.10,0.06,1.50
4.07,-0.03,-0.35,-0.18,0.11,0.03,1.57
4.071,-0.00,-0.35,-0.18,0.11,0.03,1.57
4.075,-0.00,-0.35,-0.18,0.16,-0.04,1.61
4.077,0.03,-0.33,-0.18,0.16,-0.04,1.61
4.08,0.06,-0.29,-0.18,0.16,-0.04,1.61
4.081,0.06,-0.29,-0.18,0.14,-0.08,1.62
4.085,0.08,-0.25,-0.18,0.14,-0.08,1.62
4.086,0.08,-0.25,-0.18,0.17,-0.11,1.55
4.091,0.11,-0.21,-0.18,0.17,-0.11,1.55
4.093,0.11,-0.21,-0.18,0.21,-0.16,1.46
4.095,0.11,-0.21,-0.18,0.19,-0.23,1.32
4.096,0.13,-0.16,-0.18,0.19,-0.23,1.32
4.1,0.15,-0.11,-0.19,0.19,-0.23,1.32
4.101,0.15,-0.11,-0.19,0.25,-0.30,1.13
4.105,0.15,-0.11,-0.19,0.27,-0.31,0.97
4.106,0.16,-0.07,-0.20,0.27,-0.31,0.97
4.11,0.17,-0.04,-0.21,0.27,-0.31,0.97
4.112,0.17,-0.04,-0.21,0.29,-0.37,0.77
4.115,0.17,-0.04,-0.21,0.30,-0.41,0.60
4.116,0.17,-0.01,-0.22,0.30,-0.41,0.60
4.12,0.17,-0.01,-0.22,0.30,-0.46,0.45
4.121,0.17,0.00,-0.24,0.30,-0.46,0.45
4.125,0.17,0.01,-0.25,0.30,-0.46,0.45
4.128,0.17,0.01,-0.25,0.32,-0.49,0.32
4.131,0.17,0.01,-0.27,0.32,-0.49,0.32
4.132,0.17,0.01,-0.27,0.29,-0.54,0.18
4.135,0.17,0.01,-0.28,0.29,-0.54,0.18
4.137,0.17,0.01,-0.28,0.32,-0.61,0.08
4.141,0.17,0.01,-0.28,0.37,-0.70,0.01
4.143,0.17,0.01,-0.30,0.37,-0.70,0.01
4.146,0.17,0.01,-0.31,0.37,-0.70,0.01
4.147,0.17,0.01,-0.31,0.38,-0.79,-0.04
4.151,0.16,-0.00,-0.32,0.38,-0.79,-0.04
4.151,0.16,-0.00,-0.32,0.38,-0.88,-0.13
4.156,0.16,-0.01,-0.33,0.38,-0.88,-0.13
4.157,0.16,-0.01,-0.33,0.37,-0.98,-0.22
4.161,0.16,-0.01,-0.33,0.36,-1.08,-0.28
4.163,0.16,-0.02,-0.34,0.36,-1.08,-0.28
4.166,0.16,-0.02,-0.34,0.31,-1.16,-0.36
4.167,0.16,-0.03,-0.34,0.31,-1.16,-0.36
4.171,0.16,-0.04,-0.35,0.31,-1.16,-0.36
4.172,0.16,-0.04,-0.35,0.27,-1.21,-0.42
4.184,0.16,-0.04,-0.35,0.21,-1.27,-0.43
4.186,0.16,-0.06,-0.35,0.21,-1.27,-0.43
4.188,0.16,-0.07,-0.35,0.21,-1.27,-0.43
4.19,0.16,-0.07,-0.35,0.21,-1.36,-0.44
4.191,0.16,-0.09,-0.35,0.21,-1.36,-0.44
4.193,0.16,-0.09,-0.35,0.22,-1.39,-0.48
4.194,0.16,-0.11,-0.35,0.22,-1.39,-0.48
4.196,0.16,-0.11,-0.35,0.21,-1.45,-0.41
4.198,0.15,-0.12,-0.34,0.21,-1.45,-0.41
4.199,0.15,-0.12,-0.34,0.19,-1.49,-0.38
4.202,0.15,-0.12,-0.34,0.19,-1.54,-0.35
4.204,0.15,-0.14,-0.34,0.19,-1.54,-0.35
4.208,0.15,-0.14,-0.34,0.18,-1.58,-0.33
4.21,0.14,-0.16,-0.33,0.18,-1.58,-0.33
4.211,0.14,-0.16,-0.33,0.19,-1.57,-0.25
4.212,0.13,-0.16,-0.32,0.19,-1.57,-0.25
4.216,0.13,-0.16,-0.32,0.22,-1.56,-0.16
4.217,0.12,-0.17,-0.31,0.22,-1.56,-0.16
4.221,0.12,-0.17,-0.31,0.25,-1.60,-0.12
4.222,0.12,-0.17,-0.30,0.25,-1.60,-0.12
4.227,0.12,-0.18,-0.29,0.25,-1.60,-0.12
4.229,0.12,-0.18,-0.29,0.21,-1.56,-0.03
4.231,0.12,-0.18,-0.29,0.21,-1.56,-0.03
4.232,0.12,-0.18,-0.29,0.25,-1.51,0.02
4.236,0.12,-0.18,-0.29,0.21,-1.50,0.03
4.237,0.12,-0.18,-0.28,0.21,-1.50,0.03
4.242,0.12,-0.18,-0.28,0.19,-1.47,0.06
4.245,0.12,-0.19,-0.28,0.19,-1.47,0.06
4.248,0.12,-0.19,-0.27,0.19,-1.47,0.06
4.249,0.12,-0.19,-0.27,0.17,-1.43,0.08
4.251,0.12,-0.18,-0.26,0.17,-1.43,0.08
4.252,0.12,-0.18,-0.26,0.15,-1.43,0.03
4.257,0.12,-0.18,-0.26,0.18,-1.39,0.02
4.258,0.12,-0.17,-0.25,0.18,-1.39,0.02
4.262,0.12,-0.16,-0.24,0.18,-1.39,0.02
4.264,0.12,-0.16,-0.24,0.19,-1.36,0.01
4.267,0.12,-0.16,-0.24,0.24,-1.34,-0.05
4.267,0.13,-0.14,-0.24,0.24,-1.34,-0.05
4.281,0.13,-0.11,-0.23,0.24,-1.34,-0.05
4.282,0.13,-0.11,-0.23,0.28,-1.33,-0.15
4.285,0.13,-0.11,-0.23,0.29,-1.29,-0.21
4.287,0.13,-0.09,-0.23,0.29,-1.29,-0.21
4.288,0.13,-0.09,-0.23,0.31,-1.23,-0.28
4.289,0.13,-0.06,-0.22,0.31,-1.23,-0.28
4.291,0.13,-0.06,-0.22,0.31,-1.21,-0.40
4.292,0.12,-0.03,-0.22,0.31,-1.21,-0.40
4.293,0.12,-0.01,-0.22,0.31,-1.21,-0.40
4.294,0.12,-0.01,-0.22,0.35,-1.14,-0.50
4.297,0.12,-0.01,-0.22,0.38,-1.07,-0.58
4.299,0.12,0.01,-0.23,0.38,-1.07,-0.58
4.301,0.12,0.01,-0.23,0.37,-1.00,-0.64
4.302,0.11,0.02,-0.23,0.37,-1.00,-0.64
4.308,0.11,0.02,-0.23,0.31,-0.91,-0.71
4.31,0.11,0.03,-0.23,0.31,-0.91,-0.71
4.312,0.11,0.03,-0.23,0.31,-0.91,-0.71
4.313,0.11,0.03,-0.23,0.32,-0.88,-0.84
4.317,0.11,0.03,-0.23,0.36,-0.81,-0.96
4.318,0.11,0.03,-0.23,0.36,-0.81,-0.96
4.322,0.11,0.03,-0.22,0.36,-0.81,-0.96
4.323,0.11,0.03,-0.22,0.37,-0.81,-1.02
4.332,0.11,0.03,-0.22,0.37,-0.81,-1.02
4.333,0.11,0.03,-0.22,0.37,-0.82,-1.08
4.335,0.11,0.03,-0.22,0.38,-0.79,-1.21
4.336,0.11,0.02,-0.21,0.38,-0.79,-1.21
4.337,0.11,0.01,-0.21,0.38,-0.79,-1.21
4.338,0.11,0.01,-0.21,0.42,-0.73,-1.28
4.342,0.11,0.01,-0.21,0.40,-0.69,-1.34
4.345,0.11,0.01,-0.20,0.40,-0.69,-1.34
4.347,0.11,0.01,-0.20,0.47,-0.61,-1.40
4.348,0.11,0.00,-0.20,0.47,-0.61,-1.40
4.352,0.11,-0.01,-0.20,0.47,-0.61,-1.40
4.353,0.11,-0.01,-0.20,0.49,-0.57,-1.48
4.359,0.11,-0.01,-0.20,0.49,-0.50,-1.51
4.361,0.11,-0.02,-0.20,0.49,-0.50,-1.51
4.363,0.11,-0.03,-0.20,0.49,-0.50,-1.51
4.363,0.11,-0.03,-0.20,0.54,-0.40,-1.56
4.368,0.11,-0.03,-0.20,0.60,-0.36,-1.61
4.369,0.11,-0.04,-0.20,0.60,-0.36,-1.61
4.372,0.10,-0.05,-0.21,0.60,-0.36,-1.61
4.373,0.10,-0.05,-0.21,0.59,-0.28,-1.59
4.377,0.10,-0.05,-0.21,0.62,-0.21,-1.63
4.379,0.10,-0.06,-0.22,0.62,-0.21,-1.63
4.382,0.10,-0.06,-0.22,0.62,-0.16,-1.68
4.383,0.09,-0.08,-0.23,0.62,-0.16,-1.68
4.387,0.09,-0.08,-0.23,0.63,-0.12,-1.68
4.388,0.08,-0.10,-0.25,0.63,-0.12,-1.68
4.392,0.08,-0.10,-0.25,0.63,-0.08,-1.65
4.394,0.08,-0.11,-0.26,0.63,-0.08,-1.65
4.398,0.08,-0.11,-0.26,0.63,-0.05,-1.62
4.399,0.07,-0.12,-0.27,0.63,-0.05,-1.62
4.403,0.07,-0.12,-0.27,0.64,-0.05,-1.60
4.404,0.06,-0.13,-0.29,0.64,-0.05,-1.60
4.409,0.06,-0.13,-0.29,0.64,-0.02,-1.56
4.412,0.06,-0.14,-0.30,0.64,-0.02,-1.56
4.413,0.06,-0.14,-0.30,0.62,0.00,-1.51
4.414,0.05,-0.14,-0.32,0.62,0.00,-1.51
4.418,0.05,-0.14,-0.32,0.64,0.01,-1.49
4.419,0.05,-0.14,-0.34,0.64,0.01,-1.49
4.423,0.05,-0.13,-0.35,0.64,0.01,-1.49
4.424,0.05,-0.13,-0.35,0.58,0.00,-1.50
4.429,0.04,-0.12,-0.37,0.58,0.00,-1.50
4.43,0.04,-0.12,-0.37,0.56,-0.00,-1.48
4.433,0.04,-0.12,-0.37,0.55,0.01,-1.48
4.434,0.03,-0.12,-0.38,0.55,0.01,-1.48
4.438,0.03,-0.12,-0.38,0.52,-0.01,-1.52
4.439,0.02,-0.11,-0.40,0.52,-0.01,-1.52
4.449,0.02,-0.11,-0.40,0.49,0.01,-1.50
4.451,0.01,-0.11,-0.40,0.49,0.01,-1.50
4.453,0.01,-0.11,-0.40,0.45,0.00,-1.43
4.454,0.00,-0.12,-0.41,0.45,0.00,-1.43
4.455,0.00,-0.12,-0.41,0.46,0.01,-1.41
4.456,-0.01,-0.13,-0.42,0.46,0.01,-1.41
4.46,-0.01,-0.13,-0.42,0.45,0.05,-1.37
4.463,-0.02,-0.14,-0.43,0.45,0.05,-1.37
4.464,-0.03,-0.16,-0.44,0.45,0.05,-1.37
4.465,-0.03,-0.16,-0.44,0.40,0.05,-1.30
4.468,-0.03,-0.16,-0.44,0.39,0.07,-1.18
4.469,-0.04,-0.19,-0.45,0.39,0.07,-1.18
4.473,-0.04,-0.21,-0.46,0.39,0.07,-1.18
4.474,-0.04,-0.21,-0.46,0.37,0.06,-1.05
4.478,-0.04,-0.24,-0.46,0.37,0.06,-1.05
4.48,-0.04,-0.24,-0.46,0.35,0.07,-0.88
4.483,-0.04,-0.26,-0.46,0.35,0.07,-0.88
4.484,-0.04,-0.26,-0.46,0.32,0.08,-0.81
4.488,-0.04,-0.26,-0.46,0.33,0.06,-0.72
4.489,-0.03,-0.27,-0.47,0.33,0.06,-0.72
4.494,-0.02,-0.28,-0.48,0.33,0.06,-0.72
4.495,-0.02,-0.28,-0.48,0.34,0.05,-0.66
4.499,-0.02,-0.28,-0.48,0.34,0.03,-0.60
4.5,-0.02,-0.28,-0.48,0.34,0.03,-0.60
4.503,-0.01,-0.28,-0.49,0.34,0.03,-0.60
4.504,-0.01,-0.28,-0.49,0.30,0.02,-0.55
4.509,-0.01,-0.28,-0.49,0.27,0.03,-0.59
4.512,-0.00,-0.27,-0.50,0.27,0.03,-0.59
4.514,-0.00,-0.25,-0.51,0.27,0.03,-0.59
4.515,-0.00,-0.25,-0.51,0.29,-0.02,-0.59
4.518,0.00,-0.21,-0.51,0.29,-0.02,-0.59
4.519,0.00,-0.21,-0.51,0.26,-0.06,-0.63
4.534,0.00,-0.21,-0.51,0.24,-0.08,-0.70
4.535,-0.00,-0.18,-0.52,0.24,-0.08,-0.70
4.536,-0.01,-0.15,-0.52,0.24,-0.08,-0.70
4.539,-0.01,-0.15,-0.52,0.22,-0.07,-0.77
4.541,-0.01,-0.15,-0.52,0.18,-0.06,-0.85
4.542,-0.02,-0.11,-0.52,0.18,-0.06,-0.85
4.545,-0.02,-0.11,-0.52,0.17,-0.07,-0.85
4.545,-0.03,-0.08,-0.52,0.17,-0.07,-0.85
4.546,-0.04,-0.06,-0.52,0.17,-0.07,-0.85
4.548,-0.04,-0.06,-0.52,0.16,-0.06,-0.92
4.549,-0.04,-0.06,-0.52,0.15,-0.09,-0.98
4.55,-0.05,-0.05,-0.52,0.15,-0.09,-0.98
4.554,-0.06,-0.04,-0.52,0.15,-0.09,-0.98
4.555,-0.06,-0.04,-0.52,0.12,-0.06,-0.98
4.559,-0.06,-0.04,-0.52,0.10,-0.03,-1.00
4.56,-0.07,-0.04,-0.52,0.10,-0.03,-1.00
4.564,-0.07,-0.04,-0.52,0.10,-0.01,-1.04
4.564,-0.08,-0.05,-0.52,0.10,-0.01,-1.04
4.568,-0.08,-0.05,-0.52,0.13,-0.02,-1.03
4.569,-0.09,-0.05,-0.52,0.13,-0.02,-1.03
4.585,-0.09,-0.05,-0.52,0.16,-0.01,-1.02
4.588,-0.10,-0.06,-0.52,0.16,-0.01,-1.02
4.589,-0.10,-0.06,-0.52,0.13,-0.00,-1.05
4.591,-0.10,-0.07,-0.53,0.13,-0.00,-1.05
4.593,-0.12,-0.08,-0.53,0.13,-0.00,-1.05
4.594,-0.12,-0.08,-0.53,0.11,-0.02,-1.04
4.596,-0.12,-0.08,-0.53,0.04,-0.01,-1.05
4.598,-0.13,-0.09,-0.53,0.04,-0.01,-1.05
4.599,-0.13,-0.09,-0.53,-0.03,0.04,-1.00
4.6,-0.14,-0.11,-0.53,-0.03,0.04,-1.00
4.601,-0.14,-0.11,-0.53,-0.15,0.05,-0.90
4.601,-0.16,-0.12,-0.53,-0.15,0.05,-0.90
4.604,-0.16,-0.12,-0.53,-0.22,-0.01,-0.80
4.605,-0.17,-0.14,-0.52,-0.22,-0.01,-0.80
4.609,-0.17,-0.14,-0.52,-0.29,0.01,-0.72
4.611,-0.18,-0.16,-0.51,-0.29,0.01,-0.72
4.614,-0.18,-0.16,-0.51,-0.35,0.01,-0.62
4.615,-0.18,-0.16,-0.49,-0.35,0.01,-0.62
4.619,-0.18,-0.16,-0.49,-0.39,-0.05,-0.49
4.62,-0.18,-0.17,-0.47,-0.39,-0.05,-0.49
4.625,-0.17,-0.17,-0.45,-0.39,-0.05,-0.49
4.628,-0.17,-0.17,-0.45,-0.40,-0.06,-0.41
4.629,-0.17,-0.17,-0.45,-0.43,-0.03,-0.40
4.63,-0.16,-0.16,-0.43,-0.43,-0.03,-0.40
4.634,-0.15,-0.15,-0.40,-0.43,-0.03,-0.40
4.635,-0.15,-0.15,-0.40,-0.45,-0.04,-0.37
4.639,-0.13,-0.14,-0.38,-0.45,-0.04,-0.37
4.64,-0.13,-0.14,-0.38,-0.49,-0.02,-0.38
4.645,-0.11,-0.13,-0.36,-0.49,-0.02,-0.38
4.647,-0.11,-0.13,-0.36,-0.52,0.02,-0.35
4.649,-0.11,-0.13,-0.36,-0.53,0.03,-0.40
4.65,-0.10,-0.11,-0.34,-0.53,0.03,-0.40
4.654,-0.09,-0.10,-0.32,-0.53,0.03,-0.40
4.655,-0.09,-0.10,-0.32,-0.52,0.07,-0.46
4.659,-0.08,-0.08,-0.30,-0.52,0.07,-0.46
4.661,-0.08,-0.08,-0.30,-0.51,0.09,-0.48
4.665,-0.07,-0.07,-0.28,-0.51,0.09,-0.48
4.665,-0.07,-0.07,-0.28,-0.46,0.13,-0.54
4.67,-0.07,-0.07,-0.28,-0.41,0.17,-0.61
4.67,-0.07,-0.05,-0.27,-0.41,0.17,-0.61
4.676,-0.07,-0.04,-0.26,-0.41,0.17,-0.61
4.678,-0.07,-0.04,-0.26,-0.42,0.22,-0.67
4.68,-0.08,-0.03,-0.25,-0.42,0.22,-0.67
4.681,-0.08,-0.03,-0.25,-0.38,0.26,-0.77
4.684,-0.08,-0.03,-0.25,-0.41,0.30,-0.82
4.685,-0.08,-0.03,-0.24,-0.41,0.30,-0.82
4.69,-0.08,-0.03,-0.24,-0.38,0.34,-0.83
4.691,-0.10,-0.03,-0.24,-0.38,0.34,-0.83
4.695,-0.11,-0.04,-0.23,-0.38,0.34,-0.83
4.697,-0.11,-0.04,-0.23,-0.39,0.36,-0.84
4.699,-0.13,-0.05,-0.23,-0.39,0.36,-0.84
4.7,-0.13,-0.05,-0.23,-0.38,0.41,-0.81
4.704,-0.14,-0.06,-0.23,-0.38,0.41,-0.81
4.705,-0.14,-0.06,-0.23,-0.41,0.43,-0.74
4.71,-0.14,-0.06,-0.23,-0.41,0.44,-0.63
4.711,-0.15,-0.08,-0.22,-0.41,0.44,-0.63
4.715,-0.16,-0.10,-0.20,-0.41,0.44,-0.63
4.716,-0.16,-0.10,-0.20,-0.40,0.46,-0.50
4.72,-0.16,-0.10,-0.20,-0.44,0.46,-0.36
4.721,-0.15,-0.11,-0.19,-0.44,0.46,-0.36
4.737,-0.15,-0.13,-0.18,-0.44,0.46,-0.36
4.74,-0.15,-0.13,-0.18,-0.43,0.46,-0.23
4.741,-0.15,-0.13,-0.18,-0.39,0.46,-0.01
4.743,-0.13,-0.16,-0.17,-0.39,0.46,-0.01
4.744,-0.11,-0.18,-0.16,-0.39,0.46,-0.01
4.745,-0.11,-0.18,-0.16,-0.38,0.49,0.11
4.747,-0.09,-0.20,-0.15,-0.38,0.49,0.11
4.748,-0.09,-0.20,-0.15,-0.35,0.53,0.21
4.749,-0.09,-0.20,-0.15,-0.34,0.56,0.35
4.75,-0.06,-0.20,-0.14,-0.34,0.56,0.35
4.75,-0.04,-0.20,-0.13,-0.34,0.56,0.35
4.751,-0.04,-0.20,-0.13,-0.28,0.56,0.46
4.755,-0.01,-0.19,-0.13,-0.28,0.56,0.46
4.758,-0.01,-0.19,-0.13,-0.20,0.53,0.52
4.76,-0.01,-0.19,-0.13,-0.12,0.55,0.53
4.761,0.01,-0.17,-0.13,-0.12,0.55,0.53
4.765,0.01,-0.17,-0.13,-0.05,0.57,0.55
4.766,0.03,-0.14,-0.13,-0.05,0.57,0.55
4.77,0.05,-0.11,-0.14,-0.05,0.57,0.55
4.771,0.05,-0.11,-0.14,-0.02,0.54,0.56
4.784,0.05,-0.11,-0.14,0.02,0.54,0.49
4.785,0.07,-0.07,-0.15,0.02,0.54,0.49
4.786,0.07,-0.02,-0.15,0.02,0.54,0.49
4.787,0.07,-0.02,-0.15,0.05,0.56,0.45
4.789,0.08,0.02,-0.16,0.05,0.56,0.45
4.791,0.08,0.02,-0.16,0.03,0.54,0.37
4.792,0.08,0.02,-0.16,0.04,0.52,0.26
4.792,0.07,0.06,-0.17,0.04,0.52,0.26
4.796,0.06,0.10,-0.18,0.04,0.52,0.26
4.798,0.06,0.10,-0.18,0.04,0.51,0.11
4.8,0.06,0.10,-0.18,0.05,0.53,0.04
4.801,0.05,0.14,-0.18,0.05,0.53,0.04
4.805,0.04,0.17,-0.19,0.05,0.53,0.04
4.806,0.04,0.17,-0.19,0.05,0.54,-0.03
4.811,0.04,0.17,-0.19,0.06,0.48,-0.09
4.812,0.03,0.19,-0.19,0.06,0.48,-0.09
4.815,0.03,0.19,-0.19,0.02,0.53,-0.16
4.816,0.01,0.21,-0.19,0.02,0.53,-0.16
4.82,0.01,0.22,-0.19,0.02,0.53,-0.16
4.821,0.01,0.22,-0.19,0.04,0.55,-0.20
4.825,0.01,0.22,-0.19,0.04,0.50,-0.20
4.827,0.00,0.23,-0.19,0.04,0.50,-0.20
4.831,0.00,0.23,-0.19,0.08,0.52,-0.24
4.832,-0.00,0.23,-0.19,0.08,0.52,-0.24
4.836,-0.00,0.21,-0.19,0.08,0.52,-0.24
4.837,-0.00,0.21,-0.19,0.05,0.55,-0.24
4.842,-0.00,0.21,-0.19,-0.00,0.59,-0.20
4.844,0.00,0.19,-0.19,-0.00,0.59,-0.20
4.845,0.00,0.19,-0.19,-0.06,0.63,-0.19
4.846,0.01,0.17,-0.19,-0.06,0.63,-0.19
4.851,0.02,0.16,-0.19,-0.06,0.63,-0.19
4.851,0.02,0.16,-0.19,-0.11,0.63,-0.17
4.856,0.03,0.15,-0.18,-0.11,0.63,-0.17
4.857,0.03,0.15,-0.18,-0.13,0.61,-0.21
4.861,0.03,0.15,-0.18,-0.15,0.57,-0.22
4.862,0.04,0.15,-0.17,-0.15,0.57,-0.22
4.866,0.05,0.15,-0.16,-0.15,0.57,-0.22
4.866,0.05,0.15,-0.16,-0.17,0.53,-0.21
4.871,0.05,0.15,-0.16,-0.19,0.53,-0.27
4.872,0.06,0.15,-0.15,-0.19,0.53,-0.27
4.882,0.07,0.16,-0.14,-0.19,0.53,-0.27
4.884,0.07,0.16,-0.14,-0.21,0.48,-0.34
4.885,0.07,0.17,-0.13,-0.21,0.48,-0.34
4.886,0.07,0.17,-0.13,-0.18,0.50,-0.41
4.887,0.07,0.17,-0.13,-0.19,0.48,-0.44
4.888,0.07,0.19,-0.11,-0.19,0.48,-0.44
4.895,0.06,0.19,-0.10,-0.19,0.48,-0.44
4.897,0.06,0.19,-0.10,-0.19,0.55,-0.44
4.898,0.06,0.19,-0.10,-0.17,0.56,-0.46
4.899,0.05,0.20,-0.09,-0.17,0.56,-0.46
4.901,0.05,0.20,-0.09,-0.17,0.60,-0.42
4.902,0.05,0.20,-0.08,-0.17,0.60,-0.42
4.906,0.05,0.20,-0.08,-0.15,0.65,-0.35
4.907,0.04,0.19,-0.07,-0.15,0.65,-0.35
4.911,0.04,0.19,-0.07,-0.16,0.68,-0.31
4.913,0.03,0.17,-0.06,-0.16,0.68,-0.31
4.916,0.03,0.17,-0.06,-0.19,0.70,-0.23
4.917,0.03,0.15,-0.05,-0.19,0.70,-0.23
4.921,0.03,0.15,-0.05,-0.13,0.73,-0.13
4.922,0.02,0.12,-0.05,-0.13,0.73,-0.13
4.926,0.02,0.12,-0.05,-0.09,0.74,-0.02
4.928,0.02,0.10,-0.05,-0.09,0.74,-0.02
4.932,0.02,0.10,-0.05,-0.05,0.71,0.08
4.933,0.03,0.08,-0.05,-0.05,0.71,0.08
4.937,0.03,0.06,-0.05,-0.05,0.71,0.08
4.937,0.03,0.06,-0.05,0.04,0.64,0.18
4.943,0.03,0.06,-0.05,0.11,0.62,0.25
4.945,0.03,0.04,-0.06,0.11,0.62,0.25
4.946,0.03,0.04,-0.06,0.16,0.57,0.35
4.947,0.04,0.03,-0.07,0.16,0.57,0.35
4.952,0.04,0.01,-0.08,0.16,0.57,0.35
4.953,0.04,0.01,-0.08,0.23,0.52,0.42
4.956,0.05,0.00,-0.08,0.23,0.52,0.42
4.958,0.05,0.00,-0.08,0.26,0.49,0.47
4.963,0.05,-0.01,-0.09,0.26,0.49,0.47
4.965,0.05,-0.01,-0.09,0.28,0.49,0.55
4.966,0.05,-0.02,-0.10,0.28,0.49,0.55
4.967,0.05,-0.02,-0.10,0.26,0.46,0.61
4.971,0.06,-0.03,-0.10,0.26,0.46,0.61
4.973,0.06,-0.03,-0.10,0.23,0.42,0.69
4.978,0.06,-0.04,-0.11,0.23,0.42,0.69
4.98,0.06,-0.04,-0.11,0.25,0.42,0.82
4.982,0.06,-0.04,-0.11,0.31,0.44,0.97
4.983,0.06,-0.06,-0.11,0.31,0.44,0.97
4.987,0.06,-0.06,-0.11,0.35,0.44,1.02
4.988,0.07,-0.07,-0.12,0.35,0.44,1.02
4.992,0.07,-0.07,-0.12,0.38,0.39,1.06
4.994,0.08,-0.08,-0.13,0.38,0.39,1.06
4.997,0.09,-0.08,-0.15,0.38,0.39,1.06
4.998,0.09,-0.08,-0.15,0.41,0.37,1.13
5.002,0.09,-0.08,-0.15,0.43,0.33,1.16
5.002,0.10,-0.07,-0.17,0.43,0.33,1.16
5.017,0.10,-0.07,-0.17,0.42,0.28,1.19
5.018,0.11,-0.06,-0.20,0.42,0.28,1.19
5.019,0.11,-0.06,-0.20,0.41,0.22,1.17
5.02,0.12,-0.05,-0.23,0.41,0.22,1.17
5.021,0.12,-0.03,-0.26,0.41,0.22,1.17
5.022,0.12,-0.03,-0.26,0.42,0.15,1.14
5.024,0.12,-0.03,-0.26,0.41,0.09,1.07
5.025,0.12,-0.00,-0.29,0.41,0.09,1.07
5.039,0.11,0.03,-0.33,0.41,0.09,1.07
5.04,0.11,0.03,-0.33,0.38,0.02,1.03
5.041,0.11,0.03,-0.33,0.34,-0.05,0.93
5.044,0.10,0.05,-0.36,0.34,-0.05,0.93
5.045,0.07,0.07,-0.39,0.34,-0.05,0.93
5.046,0.07,0.07,-0.39,0.32,-0.12,0.87
5.047,0.07,0.07,-0.39,0.28,-0.20,0.85
5.048,0.04,0.08,-0.42,0.28,-0.20,0.85
5.049,0.04,0.08,-0.42,0.25,-0.26,0.88
5.05,0.01,0.09,-0.45,0.25,-0.26,0.88
5.053,0.01,0.09,-0.45,0.23,-0.39,0.90
5.055,-0.03,0.08,-0.47,0.23,-0.39,0.90
5.058,-0.03,0.08,-0.47,0.10,-0.44,0.92
5.059,-0.07,0.08,-0.50,0.10,-0.44,0.92
5.062,-0.11,0.06,-0.52,0.10,-0.44,0.92
5.063,-0.11,0.06,-0.52,-0.09,-0.47,1.04
5.067,-0.15,0.03,-0.53,-0.09,-0.47,1.04
5.068,-0.15,0.03,-0.53,-0.28,-0.48,1.16
5.072,-0.15,0.03,-0.53,-0.42,-0.52,1.29
5.073,-0.18,0.00,-0.53,-0.42,-0.52,1.29
5.077,-0.18,0.00,-0.53,-0.56,-0.62,1.51
5.079,-0.21,-0.01,-0.52,-0.56,-0.62,1.51
5.082,-0.21,-0.01,-0.52,-0.67,-0.68,1.67
5.083,-0.23,-0.02,-0.51,-0.67,-0.68,1.67
5.087,-0.23,-0.02,-0.51,-0.78,-0.70,1.83
5.088,-0.24,-0.02,-0.49,-0.78,-0.70,1.83
5.092,-0.24,-0.02,-0.49,-0.87,-0.71,2.01
5.094,-0.25,-0.00,-0.46,-0.87,-0.71,2.01
5.097,-0.24,0.02,-0.44,-0.87,-0.71,2.01
5.098,-0.24,0.02,-0.44,-0.97,-0.77,2.13
5.102,-0.24,0.02,-0.44,-1.07,-0.75,2.15
5.103,-0.22,0.06,-0.40,-1.07,-0.75,2.15
5.109,-0.20,0.10,-0.36,-1.07,-0.75,2.15
5.111,-0.20,0.10,-0.36,-1.13,-0.75,2.13
5.113,-0.20,0.10,-0.36,-1.19,-0.78,2.08
5.114,-0.17,0.15,-0.32,-1.19,-0.78,2.08
5.117,-0.15,0.20,-0.27,-1.19,-0.78,2.08
5.118,-0.15,0.20,-0.27,-1.20,-0.79,1.97
5.123,-0.15,0.20,-0.27,-1.18,-0.79,1.74
5.123,-0.13,0.24,-0.22,-1.18,-0.79,1.74
5.128,-0.13,0.24,-0.22,-1.14,-0.77,1.54
5.129,-0.10,0.28,-0.17,-1.14,-0.77,1.54
5.132,-0.10,0.28,-0.17,-1.03,-0.69,1.29
5.133,-0.08,0.30,-0.11,-1.03,-0.69,1.29
5.138,-0.07,0.31,-0.06,-1.03,-0.69,1.29
5.139,-0.07,0.31,-0.06,-0.96,-0.63,1.14
5.148,-0.07,0.31,-0.06,-0.85,-0.53,0.97
5.15,-0.06,0.30,-0.00,-0.85,-0.53,0.97
5.151,-0.05,0.27,0.05,-0.85,-0.53,0.97
5.153,-0.05,0.27,0.05,-0.74,-0.41,0.88
5.153,-0.04,0.23,0.09,-0.74,-0.41,0.88
5.154,-0.04,0.23,0.09,-0.60,-0.30,0.84
5.159,-0.04,0.23,0.09,-0.43,-0.18,0.77
5.16,-0.03,0.18,0.13,-0.43,-0.18,0.77
5.163,-0.03,0.18,0.13,-0.24,-0.12,0.76
5.164,-0.00,0.12,0.16,-0.24,-0.12,0.76
5.168,-0.00,0.12,0.16,-0.11,-0.06,0.81
5.169,0.02,0.06,0.17,-0.11,-0.06,0.81
5.173,0.05,0.01,0.18,-0.11,-0.06,0.81
5.174,0.05,0.01,0.18,0.04,-0.02,0.83
5.179,0.08,-0.04,0.19,0.04,-0.02,0.83
5.182,0.08,-0.04,0.19,0.19,-0.00,0.82
5.183,0.11,-0.09,0.19,0.19,-0.00,0.82
5.183,0.11,-0.09,0.19,0.28,0.03,0.81
5.188,0.11,-0.09,0.19,0.37,0.07,0.80
5.189,0.13,-0.12,0.19,0.37,0.07,0.80
5.193,0.13,-0.12,0.19,0.45,0.07,0.79
5.195,0.15,-0.15,0.18,0.45,0.07,0.79
5.198,0.17,-0.17,0.17,0.45,0.07,0.79
5.199,0.17,-0.17,0.17,0.48,0.08,0.76
5.203,0.17,-0.17,0.17,0.54,0.07,0.67
5.204,0.18,-0.17,0.16,0.54,0.07,0.67
5.209,0.18,-0.17,0.16,0.55,0.04,0.62
5.211,0.18,-0.17,0.14,0.55,0.04,0.62
5.214,0.18,-0.16,0.12,0.55,0.04,0.62
5.215,0.18,-0.16,0.12,0.60,0.04,0.58
5.218,0.17,-0.15,0.10,0.60,0.04,0.58
5.219,0.17,-0.15,0.10,0.64,0.04,0.53
5.225,0.16,-0.13,0.07,0.64,0.04,0.53
5.227,0.16,-0.13,0.07,0.62,0.02,0.48
5.229,0.15,-0.11,0.04,0.62,0.02,0.48
5.23,0.15,-0.11,0.04,0.63,-0.05,0.42
5.233,0.13,-0.08,0.01,0.63,-0.05,0.42
5.234,0.13,-0.08,0.01,0.60,-0.07,0.38
5.239,0.13,-0.08,0.01,0.57,-0.08,0.34
5.242,0.10,-0.05,-0.03,0.57,-0.08,0.34
5.245,0.10,-0.05,-0.03,0.55,-0.13,0.33
5.247,0.08,-0.02,-0.06,0.55,-0.13,0.33
5.249,0.05,0.01,-0.10,0.55,-0.13,0.33
5.25,0.05,0.01,-0.10,0.52,-0.21,0.32
5.254,0.02,0.04,-0.14,0.52,-0.21,0.32
5.255,0.02,0.04,-0.14,0.44,-0.28,0.21
5.26,-0.01,0.06,-0.17,0.44,-0.28,0.21
5.263,-0.01,0.06,-0.17,0.37,-0.31,0.18
5.264,-0.01,0.06,-0.17,0.30,-0.38,0.20
5.265,-0.04,0.08,-0.19,0.30,-0.38,0.20
5.269,-0.04,0.08,-0.19,0.22,-0.43,0.17
5.27,-0.06,0.10,-0.21,0.22,-0.43,0.17
5.284,-0.08,0.11,-0.22,0.22,-0.43,0.17
5.285,-0.08,0.11,-0.22,0.20,-0.50,0.17
5.299,-0.09,0.11,-0.23,0.20,-0.50,0.17
5.301,-0.09,0.11,-0.23,0.18,-0.57,0.20
5.304,-0.10,0.10,-0.23,0.18,-0.57,0.20
5.305,-0.10,0.10,-0.23,0.12,-0.61,0.25
5.306,-0.10,0.09,-0.24,0.12,-0.61,0.25
5.308,-0.10,0.09,-0.24,0.09,-0.65,0.30
5.31,-0.09,0.07,-0.25,0.09,-0.65,0.30
5.311,-0.09,0.07,-0.25,0.08,-0.67,0.36
5.312,-0.08,0.04,-0.26,0.08,-0.67,0.36
5.313,-0.08,0.04,-0.26,0.02,-0.74,0.39
5.314,-0.08,0.04,-0.26,-0.02,-0.79,0.44
5.315,-0.07,0.01,-0.26,-0.02,-0.79,0.44
5.316,-0.07,0.01,-0.26,-0.13,-0.81,0.48
5.317,-0.06,-0.01,-0.26,-0.13,-0.81,0.48
5.318,-0.06,-0.01,-0.26,-0.18,-0.81,0.52
5.319,-0.04,-0.04,-0.26,-0.18,-0.81,0.52
5.32,-0.04,-0.04,-0.26,-0.17,-0.88,0.56
5.32,-0.02,-0.05,-0.26,-0.17,-0.88,0.56
5.324,-0.02,-0.05,-0.26,-0.18,-0.91,0.60
5.326,-0.01,-0.07,-0.26,-0.18,-0.91,0.60
5.329,-0.01,-0.07,-0.26,-0.27,-0.91,0.59
5.33,0.01,-0.08,-0.25,-0.27,-0.91,0.59
5.334,0.01,-0.08,-0.25,-0.31,-0.93,0.57
5.335,0.01,-0.08,-0.25,-0.31,-0.93,0.57
5.339,0.01,-0.08,-0.25,-0.39,-0.93,0.55
5.34,0.02,-0.07,-0.24,-0.39,-0.93,0.55
5.344,0.02,-0.07,-0.24,-0.46,-0.96,0.55
5.345,0.02,-0.06,-0.23,-0.46,-0.96,0.55
5.349,0.02,-0.06,-0.23,-0.52,-0.98,0.49
5.35,0.02,-0.04,-0.22,-0.52,-0.98,0.49
5.354,0.02,-0.04,-0.22,-0.56,-0.98,0.44
5.355,0.01,-0.01,-0.21,-0.56,-0.98,0.44
5.359,0.00,0.02,-0.20,-0.56,-0.98,0.44
5.361,0.00,0.02,-0.20,-0.61,-1.00,0.36
5.365,-0.02,0.05,-0.18,-0.61,-1.00,0.36
5.365,-0.02,0.05,-0.18,-0.66,-0.97,0.35
5.369,-0.03,0.08,-0.16,-0.66,-0.97,0.35
5.37,-0.03,0.08,-0.16,-0.71,-0.96,0.33
5.375,-0.04,0.11,-0.13,-0.71,-0.96,0.33
5.377,-0.04,0.11,-0.13,-0.74,-0.93,0.30
5.38,-0.06,0.12,-0.11,-0.74,-0.93,0.30
5.381,-0.06,0.12,-0.11,-0.75,-0.90,0.27
5.384,-0.06,0.12,-0.11,-0.69,-0.86,0.28
5.385,-0.06,0.14,-0.08,-0.69,-0.86,0.28
5.389,-0.06,0.14,-0.08,-0.62,-0.77,0.25
5.39,-0.06,0.16,-0.05,-0.62,-0.77,0.25
5.395,-0.06,0.16,-0.05,-0.54,-0.73,0.28
5.396,-0.06,0.16,-0.02,-0.54,-0.73,0.28
5.399,-0.05,0.17,-0.00,-0.54,-0.73,0.28
5.4,-0.05,0.17,-0.00,-0.48,-0.70,0.24
5.404,-0.03,0.16,0.02,-0.48,-0.70,0.24
5.405,-0.03,0.16,0.02,-0.39,-0.61,0.23
5.415,-0.01,0.15,0.04,-0.39,-0.61,0.23
5.417,-0.01,0.15,0.04,-0.34,-0.52,0.16
5.418,0.01,0.14,0.05,-0.34,-0.52,0.16
5.42,0.01,0.14,0.05,-0.28,-0.47,0.14
5.422,0.03,0.12,0.06,-0.28,-0.47,0.14
5.423,0.03,0.12,0.06,-0.22,-0.37,0.09
5.431,0.05,0.10,0.07,-0.22,-0.37,0.09
5.432,0.05,0.10,0.07,-0.16,-0.31,0.02
5.434,0.05,0.10,0.07,-0.05,-0.25,-0.04
5.436,0.08,0.09,0.07,-0.05,-0.25,-0.04
5.437,0.08,0.09,0.07,0.02,-0.20,-0.08
5.438,0.10,0.08,0.07,0.02,-0.20,-0.08
5.44,0.10,0.08,0.07,0.07,-0.16,-0.13
5.441,0.12,0.07,0.07,0.07,-0.16,-0.13
5.445,0.12,0.07,0.07,0.11,-0.12,-0.21
5.447,0.14,0.06,0.07,0.11,-0.12,-0.21
5.45,0.15,0.06,0.06,0.11,-0.12,-0.21
5.451,0.15,0.06,0.06,0.17,-0.09,-0.34
5.455,0.16,0.06,0.05,0.17,-0.09,-0.34
5.456,0.16,0.06,0.05,0.24,-0.08,-0.45
5.46,0.16,0.06,0.04,0.24,-0.08,-0.45
5.462,0.16,0.06,0.04,0.29,-0.06,-0.50
5.465,0.16,0.06,0.02,0.29,-0.06,-0.50
5.466,0.16,0.06,0.02,0.31,-0.02,-0.59
5.47,0.15,0.06,0.00,0.31,-0.02,-0.59
5.471,0.15,0.06,0.00,0.34,0.01,-0.66
5.476,0.15,0.06,0.00,0.34,0.09,-0.70
5.478,0.14,0.05,-0.01,0.34,0.09,-0.70
5.48,0.13,0.04,-0.03,0.34,0.09,-0.70
5.481,0.13,0.04,-0.03,0.34,0.10,-0.69
5.485,0.13,0.04,-0.03,0.35,0.11,-0.69
5.486,0.11,0.02,-0.06,0.35,0.11,-0.69
5.492,0.10,0.00,-0.08,0.35,0.11,-0.69
5.494,0.10,0.00,-0.08,0.34,0.13,-0.59
5.495,0.08,-0.02,-0.10,0.34,0.13,-0.59
5.496,0.08,-0.02,-0.10,0.36,0.13,-0.51
5.5,0.07,-0.04,-0.12,0.36,0.13,-0.51
5.501,0.07,-0.04,-0.12,0.32,0.14,-0.44
5.506,0.07,-0.04,-0.12,0.31,0.13,-0.31
5.507,0.07,-0.05,-0.15,0.31,0.13,-0.31
5.512,0.07,-0.07,-0.17,0.31,0.13,-0.31
5.514,0.07,-0.07,-0.17,0.30,0.11,-0.12
5.516,0.07,-0.07,-0.17,0.31,0.11,-0.04
5.517,0.08,-0.08,-0.19,0.31,0.11,-0.04
5.521,0.09,-0.08,-0.21,0.31,0.11,-0.04
5.522,0.09,-0.08,-0.21,0.30,0.07,0.07
5.534,0.09,-0.08,-0.21,0.27,0.05,0.23
5.536,0.10,-0.07,-0.23,0.27,0.05,0.23
5.565,0.10,-0.07,-0.23,0.24,0.06,0.26
5.566,0.12,-0.06,-0.25,0.24,0.06,0.26
5.567,0.12,-0.06,-0.25,0.21,0.03,0.28
5.568,0.14,-0.04,-0.27,0.21,0.03,0.28
5.569,0.16,-0.02,-0.28,0.21,0.03,0.28
5.569,0.16,-0.02,-0.28,0.16,-0.03,0.22
5.57,0.16,-0.02,-0.28,0.13,-0.09,0.16
5.571,0.18,0.01,-0.30,0.13,-0.09,0.16
5.572,0.18,0.01,-0.30,0.10,-0.17,0.02
5.572,0.19,0.05,-0.31,0.10,-0.17,0.02
5.573,0.20,0.07,-0.32,0.10,-0.17,0.02
5.574,0.20,0.07,-0.32,0.07,-0.19,-0.13
5.574,0.20,0.07,-0.32,0.04,-0.17,-0.25
5.575,0.20,0.10,-0.33,0.04,-0.17,-0.25
5.576,0.20,0.13,-0.33,0.04,-0.17,-0.25
5.576,0.20,0.13,-0.33,0.03,-0.18,-0.41
5.577,0.20,0.14,-0.34,0.03,-0.18,-0.41
5.577,0.20,0.14,-0.34,0.06,-0.19,-0.53
5.578,0.20,0.14,-0.34,0.02,-0.18,-0.65
5.579,0.19,0.16,-0.34,0.02,-0.18,-0.65
5.581,0.18,0.17,-0.35,0.02,-0.18,-0.65
5.582,0.18,0.17,-0.35,0.07,-0.19,-0.76
5.587,0.18,0.17,-0.35,0.11,-0.19,-0.85
5.588,0.17,0.18,-0.35,0.11,-0.19,-0.85
5.593,0.16,0.18,-0.36,0.11,-0.19,-0.85
5.594,0.16,0.18,-0.36,0.13,-0.16,-0.92
5.597,0.16,0.18,-0.36,0.18,-0.15,-1.00
5.597,0.16,0.18,-0.37,0.18,-0.15,-1.00
5.602,0.16,0.18,-0.37,0.15,-0.15,-1.02
5.602,0.15,0.17,-0.39,0.15,-0.15,-1.02
5.606,0.15,0.15,-0.41,0.15,-0.15,-1.02
5.607,0.15,0.15,-0.41,0.16,-0.10,-1.04
5.611,0.15,0.13,-0.43,0.16,-0.10,-1.04
5.612,0.15,0.13,-0.43,0.12,-0.10,-1.06
5.617,0.15,0.13,-0.43,0.09,-0.12,-1.01
5.617,0.15,0.11,-0.44,0.09,-0.12,-1.01
5.623,0.15,0.08,-0.46,0.09,-0.12,-1.01
5.623,0.15,0.08,-0.46,0.06,-0.09,-1.00
5.627,0.16,0.06,-0.48,0.06,-0.09,-1.00
5.628,0.16,0.06,-0.48,0.06,-0.14,-1.00
5.632,0.16,0.03,-0.50,0.06,-0.14,-1.00
5.633,0.16,0.03,-0.50,0.01,-0.12,-0.95
5.637,0.16,0.01,-0.51,0.01,-0.12,-0.95
5.638,0.16,0.01,-0.51,0.02,-0.18,-0.91
5.645,0.16,-0.01,-0.52,0.02,-0.18,-0.91
5.646,0.16,-0.01,-0.52,-0.04,-0.25,-0.85
5.647,0.16,-0.03,-0.54,-0.04,-0.25,-0.85
5.647,0.16,-0.03,-0.54,-0.11,-0.25,-0.73
5.652,0.16,-0.05,-0.54,-0.11,-0.25,-0.73
5.653,0.16,-0.05,-0.54,-0.17,-0.29,-0.66
5.657,0.16,-0.05,-0.54,-0.22,-0.35,-0.53
5.658,0.17,-0.06,-0.55,-0.22,-0.35,-0.53
5.663,0.17,-0.07,-0.55,-0.22,-0.35,-0.53
5.664,0.17,-0.07,-0.55,-0.24,-0.37,-0.43
5.667,0.18,-0.08,-0.54,-0.24,-0.37,-0.43
5.668,0.18,-0.08,-0.54,-0.28,-0.38,-0.32
5.672,0.18,-0.08,-0.54,-0.29,-0.40,-0.25
5.673,0.19,-0.08,-0.54,-0.29,-0.40,-0.25
5.683,0.19,-0.08,-0.54,-0.29,-0.42,-0.14
5.684,0.20,-0.08,-0.54,-0.29,-0.42,-0.14
5.685,0.21,-0.07,-0.54,-0.29,-0.42,-0.14
5.686,0.21,-0.07,-0.54,-0.23,-0.47,-0.09
5.689,0.21,-0.07,-0.54,-0.28,-0.43,-0.05
5.69,0.22,-0.07,-0.54,-0.28,-0.43,-0.05
5.702,0.23,-0.05,-0.54,-0.28,-0.43,-0.05
5.704,0.23,-0.05,-0.54,-0.31,-0.45,-0.05
5.705,0.24,-0.04,-0.55,-0.31,-0.45,-0.05
5.706,0.24,-0.04,-0.55,-0.30,-0.46,-0.11
5.707,0.24,-0.04,-0.55,-0.30,-0.44,-0.17
5.708,0.25,-0.02,-0.55,-0.30,-0.44,-0.17
5.709,0.25,-0.02,-0.55,-0.29,-0.48,-0.31
5.71,0.25,-0.00,-0.55,-0.29,-0.48,-0.31
5.713,0.24,0.01,-0.55,-0.29,-0.48,-0.31
5.714,0.24,0.01,-0.55,-0.29,-0.49,-0.27
5.717,0.24,0.01,-0.55,-0.29,-0.53,-0.36
5.718,0.23,0.03,-0.54,-0.29,-0.53,-0.36
5.722,0.23,0.05,-0.54,-0.29,-0.53,-0.36
5.723,0.23,0.05,-0.54,-0.27,-0.56,-0.51
5.728,0.23,0.05,-0.54,-0.24,-0.56,-0.57
5.73,0.22,0.09,-0.53,-0.24,-0.56,-0.57
5.732,0.22,0.09,-0.53,-0.22,-0.55,-0.73
5.733,0.21,0.13,-0.53,-0.22,-0.55,-0.73
5.737,0.21,0.13,-0.53,-0.19,-0.59,-0.80
5.738,0.20,0.16,-0.52,-0.19,-0.59,-0.80
5.742,0.19,0.19,-0.52,-0.19,-0.59,-0.80
5.744,0.19,0.19,-0.52,-0.20,-0.57,-0.94
5.747,0.19,0.19,-0.52,-0.24,-0.59,-1.14
5.748,0.19,0.22,-0.52,-0.24,-0.59,-1.14
5.752,0.19,0.22,-0.52,-0.28,-0.58,-1.30
5.753,0.18,0.23,-0.52,-0.28,-0.58,-1.30
5.761,0.17,0.23,-0.51,-0.28,-0.58,-1.30
5.764,0.17,0.23,-0.51,-0.29,-0.57,-1.42
5.765,0.17,0.23,-0.51,-0.37,-0.56,-1.56
5.767,0.16,0.23,-0.50,-0.37,-0.56,-1.56
5.768,0.16,0.23,-0.50,-0.42,-0.53,-1.66
5.769,0.14,0.21,-0.49,-0.42,-0.53,-1.66
5.773,0.14,0.21,-0.49,-0.47,-0.50,-1.78
5.774,0.13,0.19,-0.48,-0.47,-0.50,-1.78
5.78,0.13,0.19,-0.48,-0.53,-0.55,-1.78
5.782,0.12,0.16,-0.46,-0.53,-0.55,-1.78
5.795,0.10,0.13,-0.43,-0.53,-0.55,-1.78
5.796,0.10,0.13,-0.43,-0.54,-0.58,-1.81
5.8,0.10,0.10,-0.41,-0.54,-0.58,-1.81
5.801,0.10,0.10,-0.41,-0.53,-0.57,-1.85
5.802,0.09,0.06,-0.38,-0.53,-0.57,-1.85
5.803,0.09,0.06,-0.38,-0.49,-0.60,-1.80
5.804,0.10,0.03,-0.35,-0.49,-0.60,-1.80
5.805,0.10,0.03,-0.35,-0.50,-0.61,-1.74
5.806,0.10,-0.01,-0.33,-0.50,-0.61,-1.74
5.806,0.10,-0.01,-0.33,-0.48,-0.60,-1.67
5.818,0.10,-0.04,-0.30,-0.48,-0.60,-1.67
5.819,0.10,-0.04,-0.30,-0.47,-0.57,-1.66
5.82,0.10,-0.04,-0.30,-0.46,-0.63,-1.61
5.821,0.10,-0.06,-0.28,-0.46,-0.63,-1.61
5.822,0.11,-0.09,-0.26,-0.46,-0.63,-1.61
5.823,0.11,-0.09,-0.26,-0.46,-0.58,-1.56
5.824,0.11,-0.10,-0.24,-0.46,-0.58,-1.56
5.825,0.11,-0.10,-0.24,-0.46,-0.53,-1.53
5.83,0.11,-0.12,-0.22,-0.46,-0.53,-1.53
5.832,0.11,-0.12,-0.22,-0.44,-0.52,-1.56
5.833,0.11,-0.12,-0.22,-0.46,-0.49,-1.50
5.833,0.11,-0.14,-0.21,-0.46,-0.49,-1.50
5.838,0.10,-0.15,-0.19,-0.46,-0.49,-1.50
5.839,0.10,-0.15,-0.19,-0.48,-0.47,-1.46
5.842,0.09,-0.17,-0.17,-0.48,-0.47,-1.46
5.844,0.09,-0.17,-0.17,-0.53,-0.42,-1.43
5.848,0.07,-0.19,-0.15,-0.53,-0.42,-1.43
5.848,0.07,-0.19,-0.15,-0.55,-0.41,-1.34
5.852,0.07,-0.19,-0.15,-0.59,-0.36,-1.27
5.853,0.06,-0.20,-0.13,-0.59,-0.36,-1.27
5.86,0.06,-0.20,-0.13,-0.58,-0.30,-1.18
5.861,0.04,-0.21,-0.12,-0.58,-0.30,-1.18
5.863,0.02,-0.22,-0.10,-0.58,-0.30,-1.18
5.863,0.02,-0.22,-0.10,-0.52,-0.26,-1.06
5.868,0.02,-0.22,-0.10,-0.45,-0.22,-0.97
5.868,0.01,-0.23,-0.10,-0.45,-0.22,-0.97
5.872,0.01,-0.23,-0.10,-0.40,-0.16,-0.85
5.873,-0.01,-0.24,-0.09,-0.40,-0.16,-0.85
5.878,-0.02,-0.24,-0.10,-0.40,-0.16,-0.85
5.879,-0.02,-0.24,-0.10,-0.38,-0.12,-0.73
5.883,-0.02,-0.24,-0.10,-0.37,-0.04,-0.62
5.884,-0.03,-0.25,-0.10,-0.37,-0.04,-0.62
5.888,-0.04,-0.27,-0.11,-0.37,-0.04,-0.62
5.889,-0.04,-0.27,-0.11,-0.40,0.04,-0.52
5.893,-0.06,-0.29,-0.11,-0.40,0.04,-0.52
5.894,-0.06,-0.29,-0.11,-0.40,0.08,-0.40
5.899,-0.06,-0.29,-0.11,-0.44,0.14,-0.26
5.9,-0.07,-0.32,-0.12,-0.44,0.14,-0.26
5.903,-0.07,-0.32,-0.12,-0.51,0.21,-0.07
5.904,-0.09,-0.35,-0.12,-0.51,0.21,-0.07
5.919,-0.09,-0.35,-0.12,-0.54,0.29,0.14
5.921,-0.10,-0.39,-0.12,-0.54,0.29,0.14
5.923,-0.10,-0.39,-0.12,-0.56,0.37,0.33
5.925,-0.11,-0.42,-0.12,-0.56,0.37,0.33
5.927,-0.11,-0.42,-0.12,-0.52,0.44,0.54
5.928,-0.12,-0.45,-0.12,-0.52,0.44,0.54
5.93,-0.12,-0.45,-0.12,-0.51,0.50,0.74
5.931,-0.12,-0.46,-0.12,-0.51,0.50,0.74
5.933,-0.12,-0.48,-0.13,-0.51,0.50,0.74
5.934,-0.12,-0.48,-0.13,-0.51,0.58,1.01
5.935,-0.11,-0.48,-0.13,-0.51,0.58,1.01
5.935,-0.11,-0.48,-0.13,-0.47,0.60,1.23
5.939,-0.09,-0.46,-0.14,-0.47,0.60,1.23
5.941,-0.09,-0.46,-0.14,-0.42,0.63,1.33
5.944,-0.07,-0.42,-0.16,-0.42,0.63,1.33
5.945,-0.07,-0.42,-0.16,-0.36,0.65,1.43
5.948,-0.04,-0.37,-0.17,-0.36,0.65,1.43
5.95,-0.04,-0.37,-0.17,-0.29,0.64,1.47
5.954,-0.01,-0.31,-0.20,-0.29,0.64,1.47
5.955,-0.01,-0.31,-0.20,-0.21,0.61,1.45
5.959,-0.01,-0.31,-0.20,-0.17,0.60,1.37
5.961,0.02,-0.24,-0.22,-0.17,0.60,1.37
5.964,0.02,-0.24,-0.22,-0.19,0.61,1.19
5.965,0.05,-0.15,-0.25,-0.19,0.61,1.19
5.968,0.07,-0.06,-0.27,-0.19,0.61,1.19
5.969,0.07,-0.06,-0.27,-0.22,0.56,0.93
5.975,0.07,-0.06,-0.27,-0.27,0.53,0.64
5.977,0.08,0.02,-0.29,-0.27,0.53,0.64
5.979,0.08,0.02,-0.29,-0.32,0.56,0.35
5.98,0.08,0.09,-0.31,-0.32,0.56,0.35
5.983,0.07,0.16,-0.32,-0.32,0.56,0.35
5.984,0.07,0.16,-0.32,-0.32,0.51,0.04
5.989,0.07,0.16,-0.32,-0.34,0.49,-0.26
5.99,0.06,0.21,-0.33,-0.34,0.49,-0.26
5.994,0.06,0.21,-0.33,-0.33,0.49,-0.45
5.996,0.05,0.25,-0.34,-0.33,0.49,-0.45
6.001,0.03,0.28,-0.34,-0.33,0.49,-0.45
6.002,0.03,0.28,-0.34,-0.30,0.45,-0.66
6.004,0.02,0.29,-0.35,-0.30,0.45,-0.66
6.005,0.02,0.29,-0.35,-0.28,0.40,-0.80
6.009,0.01,0.29,-0.35,-0.28,0.40,-0.80
6.013,0.01,0.29,-0.35,-0.25,0.38,-0.97
6.016,0.01,0.29,-0.35,-0.25,0.38,-0.97
6.017,0.01,0.29,-0.35,-0.18,0.37,-1.13
6.02,0.01,0.29,-0.35,-0.20,0.32,-1.22
6.021,-0.00,0.27,-0.36,-0.20,0.32,-1.22
6.026,-0.00,0.27,-0.36,-0.20,0.30,-1.31
6.03,-0.01,0.23,-0.37,-0.20,0.30,-1.31
6.031,-0.01,0.18,-0.37,-0.20,0.30,-1.31
6.033,-0.01,0.18,-0.37,-0.20,0.23,-1.39
6.05,-0.01,0.18,-0.37,-0.25,0.22,-1.42
6.052,-0.02,0.11,-0.37,-0.25,0.22,-1.42
6.055,-0.04,0.04,-0.36,-0.25,0.22,-1.42
6.056,-0.04,0.04,-0.36,-0.28,0.21,-1.46
6.059,-0.05,-0.03,-0.35,-0.28,0.21,-1.46
6.06,-0.05,-0.03,-0.35,-0.31,0.21,-1.37
6.061,-0.05,-0.03,-0.35,-0.30,0.22,-1.24
6.061,-0.07,-0.10,-0.35,-0.30,0.22,-1.24
6.062,-0.08,-0.17,-0.34,-0.30,0.22,-1.24
6.063,-0.08,-0.17,-0.34,-0.35,0.22,-1.01
6.064,-0.08,-0.17,-0.34,-0.43,0.21,-0.79
6.065,-0.09,-0.24,-0.33,-0.43,0.21,-0.79
6.065,-0.09,-0.24,-0.33,-0.52,0.22,-0.55
6.066,-0.09,-0.30,-0.33,-0.52,0.22,-0.55
6.07,-0.09,-0.30,-0.33,-0.59,0.24,-0.28
6.071,-0.08,-0.35,-0.31,-0.59,0.24,-0.28
6.082,-0.08,-0.35,-0.31,-0.67,0.22,-0.11
6.084,-0.07,-0.37,-0.30,-0.67,0.22,-0.11
6.085,-0.07,-0.37,-0.30,-0.67,0.17,0.08
6.087,-0.06,-0.37,-0.27,-0.67,0.17,0.08
6.087,-0.04,-0.36,-0.25,-0.67,0.17,0.08
6.088,-0.04,-0.36,-0.25,-0.68,0.09,0.23
6.089,-0.03,-0.33,-0.23,-0.68,0.09,0.23
6.09,-0.03,-0.33,-0.23,-0.69,0.05,0.31
6.095,-0.03,-0.29,-0.21,-0.69,0.05,0.31
6.096,-0.03,-0.29,-0.21,-0.73,0.03,0.34
6.1,-0.03,-0.29,-0.21,-0.76,0.02,0.31
6.1,-0.02,-0.26,-0.18,-0.76,0.02,0.31
6.104,-0.02,-0.26,-0.18,-0.80,0.09,0.27
6.105,-0.02,-0.21,-0.15,-0.80,0.09,0.27
6.11,-0.02,-0.21,-0.15,-0.84,0.17,0.28
6.111,-0.03,-0.17,-0.13,-0.84,0.17,0.28
6.115,-0.04,-0.12,-0.10,-0.84,0.17,0.28
6.115,-0.04,-0.12,-0.10,-0.82,0.19,0.27
6.12,-0.04,-0.09,-0.07,-0.82,0.19,0.27
6.122,-0.04,-0.09,-0.07,-0.83,0.24,0.22
6.126,-0.04,-0.07,-0.05,-0.83,0.24,0.22
6.13,-0.04,-0.07,-0.05,-0.81,0.31,0.19
6.132,-0.04,-0.07,-0.05,-0.75,0.38,0.15
6.133,-0.05,-0.05,-0.02,-0.75,0.38,0.15
6.135,-0.05,-0.04,-0.01,-0.75,0.38,0.15
6.137,-0.05,-0.04,-0.01,-0.71,0.44,0.11
6.142,-0.05,-0.04,-0.01,-0.63,0.51,0.11
6.145,-0.05,-0.04,0.01,-0.63,0.51,0.11
6.146,-0.04,-0.05,0.02,-0.63,0.51,0.11
6.147,-0.04,-0.05,0.02,-0.56,0.56,0.08
6.15,-0.03,-0.06,0.04,-0.56,0.56,0.08
6.151,-0.03,-0.06,0.04,-0.47,0.61,0.05
6.155,-0.02,-0.07,0.05,-0.47,0.61,0.05
6.156,-0.02,-0.07,0.05,-0.37,0.62,0.01
6.161,-0.01,-0.08,0.06,-0.37,0.62,0.01
6.162,-0.01,-0.08,0.06,-0.26,0.61,-0.01
6.165,0.01,-0.09,0.06,-0.26,0.61,-0.01
6.166,0.01,-0.09,0.06,-0.15,0.66,-0.04
6.17,0.02,-0.09,0.06,-0.15,0.66,-0.04
6.171,0.02,-0.09,0.06,-0.05,0.66,-0.10
6.175,0.02,-0.09,0.06,0.03,0.67,-0.17
6.178,0.03,-0.10,0.06,0.03,0.67,-0.17
6.181,0.04,-0.09,0.05,0.03,0.67,-0.17
6.182,0.04,-0.09,0.05,0.11,0.71,-0.19
6.185,0.05,-0.10,0.04,0.11,0.71,-0.19
6.186,0.05,-0.10,0.04,0.21,0.72,-0.30
6.193,0.05,-0.10,0.04,0.25,0.70,-0.41
6.195,0.06,-0.10,0.03,0.25,0.70,-0.41
6.196,0.06,-0.09,0.01,0.25,0.70,-0.41
6.197,0.06,-0.09,0.01,0.26,0.73,-0.47
6.201,0.05,-0.10,-0.00,0.26,0.73,-0.47
6.202,0.05,-0.10,-0.00,0.26,0.72,-0.54
6.206,0.03,-0.10,-0.02,0.26,0.72,-0.54
6.207,0.03,-0.10,-0.02,0.28,0.73,-0.57
6.221,0.02,-0.11,-0.03,0.28,0.73,-0.57
6.222,0.02,-0.11,-0.03,0.29,0.77,-0.63
6.224,0.01,-0.11,-0.04,0.29,0.77,-0.63
6.225,0.01,-0.11,-0.04,0.25,0.78,-0.70
6.226,0.01,-0.11,-0.04,0.26,0.78,-0.71
6.229,-0.01,-0.12,-0.06,0.26,0.78,-0.71
6.231,-0.01,-0.12,-0.06,0.26,0.80,-0.65
6.233,-0.03,-0.13,-0.07,0.26,0.80,-0.65
6.235,-0.04,-0.14,-0.09,0.26,0.80,-0.65
6.236,-0.04,-0.14,-0.09,0.18,0.79,-0.63
6.237,-0.06,-0.14,-0.10,0.18,0.79,-0.63
6.239,-0.06,-0.14,-0.10,0.18,0.80,-0.61
6.244,-0.06,-0.15,-0.12,0.18,0.80,-0.61
6.246,-0.06,-0.15,-0.12,0.19,0.80,-0.55
6.248,-0.07,-0.16,-0.13,0.19,0.80,-0.55
6.249,-0.07,-0.16,-0.13,0.14,0.80,-0.53
6.251,-0.06,-0.15,-0.13,0.14,0.80,-0.53
6.252,-0.06,-0.15,-0.13,0.10,0.75,-0.44
6.256,-0.06,-0.16,-0.14,0.10,0.75,-0.44
6.258,-0.06,-0.16,-0.14,0.10,0.77,-0.44
6.263,-0.06,-0.16,-0.14,0.07,0.75,-0.48
6.265,-0.06,-0.15,-0.15,0.07,0.75,-0.48
6.266,-0.06,-0.15,-0.15,0.02,0.71,-0.51
6.267,-0.05,-0.15,-0.16,0.02,0.71,-0.51
6.271,-0.05,-0.15,-0.17,0.02,0.71,-0.51
6.272,-0.05,-0.15,-0.17,-0.01,0.65,-0.52
6.276,-0.05,-0.15,-0.18,-0.01,0.65,-0.52
6.278,-0.05,-0.15,-0.18,-0.09,0.67,-0.59
6.281,-0.05,-0.15,-0.18,-0.13,0.66,-0.59
6.282,-0.06,-0.16,-0.19,-0.13,0.66,-0.59
6.295,-0.06,-0.16,-0.20,-0.13,0.66,-0.59
6.296,-0.06,-0.16,-0.20,-0.24,0.61,-0.58
6.297,-0.06,-0.16,-0.20,-0.32,0.63,-0.61
6.298,-0.07,-0.17,-0.20,-0.32,0.63,-0.61
6.302,-0.08,-0.18,-0.20,-0.32,0.63,-0.61
6.303,-0.08,-0.18,-0.20,-0.38,0.59,-0.61
6.305,-0.09,-0.19,-0.21,-0.38,0.59,-0.61
6.306,-0.09,-0.19,-0.21,-0.44,0.55,-0.61
6.307,-0.10,-0.19,-0.21,-0.44,0.55,-0.61
6.308,-0.10,-0.19,-0.21,-0.50,0.53,-0.56
6.312,-0.10,-0.19,-0.21,-0.53,0.50,-0.49
6.314,-0.11,-0.19,-0.21,-0.53,0.50,-0.49
6.316,-0.12,-0.19,-0.21,-0.53,0.50,-0.49
6.317,-0.12,-0.19,-0.21,-0.55,0.47,-0.47
6.321,-0.12,-0.19,-0.21,-0.64,0.46,-0.38
6.322,-0.13,-0.19,-0.21,-0.64,0.46,-0.38
6.326,-0.13,-0.18,-0.20,-0.64,0.46,-0.38
6.328,-0.13,-0.18,-0.20,-0.70,0.44,-0.32
6.331,-0.13,-0.19,-0.20,-0.70,0.44,-0.32
6.332,-0.13,-0.19,-0.20,-0.70,0.40,-0.29
6.336,-0.13,-0.19,-0.20,-0.70,0.42,-0.21
6.337,-0.14,-0.18,-0.19,-0.70,0.42,-0.21
6.349,-0.14,-0.19,-0.19,-0.70,0.42,-0.21
6.352,-0.14,-0.19,-0.19,-0.75,0.38,-0.21
6.353,-0.14,-0.18,-0.18,-0.75,0.38,-0.21
6.354,-0.14,-0.18,-0.18,-0.79,0.36,-0.15
6.355,-0.13,-0.18,-0.17,-0.79,0.36,-0.15
6.357,-0.13,-0.18,-0.17,-0.80,0.31,-0.14
6.358,-0.14,-0.18,-0.16,-0.80,0.31,-0.14
6.359,-0.14,-0.18,-0.16,-0.83,0.30,-0.13
6.362,-0.14,-0.18,-0.16,-0.85,0.26,-0.09
6.363,-0.14,-0.18,-0.16,-0.85,0.26,-0.09
6.366,-0.14,-0.18,-0.15,-0.85,0.26,-0.09
6.367,-0.14,-0.18,-0.15,-0.88,0.29,-0.02
6.372,-0.14,-0.18,-0.14,-0.88,0.29,-0.02
6.372,-0.14,-0.18,-0.14,-0.90,0.30,0.07
6.378,-0.14,-0.18,-0.14,-0.94,0.30,0.15
6.379,-0.14,-0.18,-0.13,-0.94,0.30,0.15
6.381,-0.14,-0.19,-0.12,-0.94,0.30,0.15
6.382,-0.14,-0.19,-0.12,-0.93,0.28,0.22
6.387,-0.14,-0.19,-0.11,-0.93,0.28,0.22
6.387,-0.14,-0.19,-0.11,-0.93,0.29,0.30
6.392,-0.14,-0.19,-0.10,-0.93,0.29,0.30
6.394,-0.14,-0.19,-0.10,-0.95,0.32,0.40
6.397,-0.14,-0.19,-0.09,-0.95,0.32,0.40
6.398,-0.14,-0.19,-0.09,-0.99,0.27,0.50
6.402,-0.13,-0.19,-0.08,-0.99,0.27,0.50
6.403,-0.13,-0.19,-0.08,-1.01,0.29,0.59
6.409,-0.13,-0.19,-0.08,-0.99,0.28,0.68
6.411,-0.12,-0.19,-0.06,-0.99,0.28,0.68
6.412,-0.11,-0.18,-0.05,-0.99,0.28,0.68
6.413,-0.11,-0.18,-0.05,-0.95,0.30,0.72
6.417,-0.10,-0.17,-0.03,-0.95,0.30,0.72
6.418,-0.10,-0.17,-0.03,-0.93,0.30,0.82
6.422,-0.10,-0.17,-0.03,-0.88,0.28,0.89
6.423,-0.09,-0.16,-0.02,-0.88,0.28,0.89
6.428,-0.09,-0.16,-0.02,-0.81,0.33,0.92
6.43,-0.07,-0.15,-0.00,-0.81,0.33,0.92
6.433,-0.06,-0.13,0.01,-0.81,0.33,0.92
6.434,-0.06,-0.13,0.01,-0.78,0.33,0.94
6.437,-0.05,-0.12,0.03,-0.78,0.33,0.94
6.438,-0.05,-0.12,0.03,-0.72,0.36,0.93
6.443,-0.05,-0.12,0.03,-0.66,0.42,0.96
6.445,-0.04,-0.10,0.05,-0.66,0.42,0.96
6.448,-0.03,-0.08,0.06,-0.66,0.42,0.96
6.449,-0.03,-0.08,0.06,-0.59,0.44,0.93
6.452,-0.02,-0.06,0.07,-0.59,0.44,0.93
6.453,-0.02,-0.06,0.07,-0.51,0.44,0.90
6.468,-0.01,-0.04,0.07,-0.51,0.44,0.90
6.469,-0.01,-0.04,0.07,-0.42,0.48,0.90
6.47,-0.01,-0.04,0.07,-0.34,0.50,0.86
6.471,0.01,-0.02,0.08,-0.34,0.50,0.86
6.473,0.02,-0.00,0.08,-0.34,0.50,0.86
6.474,0.02,-0.00,0.08,-0.27,0.51,0.81
6.476,0.02,-0.00,0.08,-0.22,0.54,0.71
6.477,0.02,0.01,0.08,-0.22,0.54,0.71
6.478,0.03,0.04,0.08,-0.22,0.54,0.71
6.479,0.03,0.04,0.08,-0.14,0.55,0.64
6.483,0.03,0.04,0.08,-0.11,0.59,0.58
6.485,0.04,0.06,0.07,-0.11,0.59,0.58
6.487,0.04,0.08,0.06,-0.11,0.59,0.58
6.488,0.04,0.08,0.06,-0.11,0.58,0.47
6.493,0.04,0.10,0.06,-0.11,0.58,0.47
6.495,0.04,0.10,0.06,-0.10,0.56,0.37
6.498,0.04,0.11,0.06,-0.10,0.56,0.37
6.499,0.04,0.11,0.06,-0.06,0.55,0.30
6.502,0.04,0.12,0.05,-0.06,0.55,0.30
6.503,0.04,0.12,0.05,0.03,0.55,0.30
6.51,0.04,0.12,0.05,0.13,0.57,0.20
6.512,0.04,0.11,0.04,0.13,0.57,0.20
6.513,0.04,0.11,0.04,0.17,0.56,0.12
6.514,0.03,0.11,0.03,0.17,0.56,0.12
6.518,0.03,0.11,0.03,0.19,0.59,0.07
6.519,0.02,0.10,0.02,0.19,0.59,0.07
6.523,0.02,0.10,0.02,0.19,0.62,0.09
6.524,0.01,0.09,0.00,0.19,0.62,0.09
6.528,0.01,0.09,0.00,0.22,0.63,0.07
6.53,0.00,0.07,-0.01,0.22,0.63,0.07
6.533,0.00,0.07,-0.01,0.25,0.57,0.13
6.533,-0.01,0.04,-0.03,0.25,0.57,0.13
6.548,-0.01,0.04,-0.03,0.25,0.54,0.22
6.549,-0.02,0.02,-0.05,0.25,0.54,0.22
6.552,-0.02,0.02,-0.05,0.27,0.51,0.38
6.554,-0.02,-0.01,-0.07,0.27,0.51,0.38
6.555,-0.03,-0.05,-0.08,0.27,0.51,0.38
6.556,-0.03,-0.05,-0.08,0.29,0.49,0.46
6.558,-0.03,-0.05,-0.08,0.27,0.50,0.53
6.559,-0.03,-0.09,-0.11,0.27,0.50,0.53
6.56,-0.03,-0.09,-0.11,0.20,0.54,0.66
6.562,-0.04,-0.14,-0.13,0.20,0.54,0.66
6.566,-0.04,-0.14,-0.13,0.20,0.54,0.80
6.567,-0.05,-0.19,-0.15,0.20,0.54,0.80
6.568,-0.05,-0.19,-0.15,0.15,0.47,0.91
6.569,-0.07,-0.24,-0.16,0.15,0.47,0.91
6.573,-0.07,-0.24,-0.16,0.14,0.43,1.12
6.574,-0.08,-0.29,-0.18,0.14,0.43,1.12
6.579,-0.08,-0.29,-0.18,0.20,0.37,1.34
6.58,-0.09,-0.33,-0.19,0.20,0.37,1.34
6.583,-0.09,-0.33,-0.19,0.27,0.31,1.55
6.584,-0.11,-0.36,-0.19,0.27,0.31,1.55
6.588,-0.11,-0.36,-0.19,0.31,0.26,1.80
6.589,-0.12,-0.38,-0.20,0.31,0.26,1.80
6.6,-0.13,-0.39,-0.21,0.31,0.26,1.80
6.603,-0.13,-0.39,-0.21,0.35,0.25,2.02
6.605,-0.13,-0.39,-0.21,0.38,0.24,2.21
6.606,-0.13,-0.40,-0.22,0.38,0.24,2.21
6.608,-0.13,-0.40,-0.22,0.45,0.18,2.38
6.61,-0.13,-0.39,-0.23,0.45,0.18,2.38
6.611,-0.13,-0.38,-0.24,0.45,0.18,2.38
6.612,-0.13,-0.38,-0.24,0.48,0.19,2.49
6.614,-0.12,-0.35,-0.25,0.48,0.19,2.49
6.616,-0.12,-0.35,-0.25,0.53,0.17,2.57
6.62,-0.12,-0.33,-0.26,0.53,0.17,2.57
6.621,-0.12,-0.33,-0.26,0.60,0.16,2.66
6.626,-0.12,-0.33,-0.26,0.67,0.13,2.70
6.628,-0.11,-0.29,-0.28,0.67,0.13,2.70
6.629,-0.11,-0.29,-0.28,0.71,0.13,2.66
6.63,-0.11,-0.25,-0.30,0.71,0.13,2.66
6.633,-0.10,-0.20,-0.32,0.71,0.13,2.66
6.634,-0.10,-0.20,-0.32,0.76,0.12,2.60
6.638,-0.10,-0.15,-0.35,0.76,0.12,2.60
6.639,-0.10,-0.15,-0.35,0.78,0.13,2.48
6.644,-0.10,-0.15,-0.35,0.78,0.11,2.35
6.646,-0.11,-0.11,-0.37,0.78,0.11,2.35
6.648,-0.11,-0.06,-0.40,0.78,0.11,2.35
6.649,-0.11,-0.06,-0.40,0.76,0.09,2.17
6.653,-0.12,-0.03,-0.43,0.76,0.09,2.17
6.654,-0.12,-0.03,-0.43,0.74,0.07,2.03
6.659,-0.12,-0.03,-0.43,0.72,0.07,1.85
6.661,-0.13,-0.01,-0.45,0.72,0.07,1.85
6.664,-0.13,-0.01,-0.45,0.66,0.08,1.64
6.665,-0.15,0.00,-0.47,0.66,0.08,1.64
6.669,-0.17,0.01,-0.49,0.66,0.08,1.64
6.669,-0.17,0.01,-0.49,0.59,0.03,1.49
6.676,-0.17,0.01,-0.49,0.54,-0.00,1.35
6.678,-0.19,-0.00,-0.50,0.54,-0.00,1.35
6.68,-0.19,-0.00,-0.50,0.49,0.01,1.30
6.681,-0.21,-0.02,-0.51,0.49,0.01,1.30
6.684,-0.21,-0.02,-0.51,0.45,-0.02,1.25
6.685,-0.22,-0.04,-0.51,0.45,-0.02,1.25
6.689,-0.23,-0.05,-0.51,0.45,-0.02,1.25
6.691,-0.23,-0.05,-0.51,0.39,-0.05,1.25
6.695,-0.24,-0.07,-0.51,0.39,-0.05,1.25
6.698,-0.24,-0.07,-0.51,0.37,-0.06,1.25
6.699,-0.24,-0.07,-0.51,0.37,-0.09,1.22
6.7,-0.24,-0.08,-0.51,0.37,-0.09,1.22
6.704,-0.24,-0.08,-0.51,0.34,-0.08,1.22
6.705,-0.23,-0.09,-0.50,0.34,-0.08,1.22
6.71,-0.21,-0.10,-0.49,0.34,-0.08,1.22
6.712,-0.21,-0.10,-0.49,0.27,-0.06,1.21
6.714,-0.21,-0.10,-0.49,0.22,-0.03,1.10
6.715,-0.19,-0.10,-0.48,0.22,-0.03,1.10
6.719,-0.19,-0.10,-0.48,0.15,-0.05,1.04
6.72,-0.17,-0.11,-0.47,0.15,-0.05,1.04
6.725,-0.17,-0.11,-0.47,0.10,-0.02,0.97
6.728,-0.14,-0.10,-0.46,0.10,-0.02,0.97
6.729,-0.11,-0.09,-0.44,0.10,-0.02,0.97
6.73,-0.11,-0.09,-0.44,0.10,-0.03,0.80
6.734,-0.08,-0.08,-0.43,0.10,-0.03,0.80
6.735,-0.08,-0.08,-0.43,0.06,-0.04,0.62
6.739,-0.06,-0.06,-0.42,0.06,-0.04,0.62
6.74,-0.06,-0.06,-0.42,0.04,-0.03,0.47
6.745,-0.06,-0.06,-0.42,0.06,-0.04,0.32
6.746,-0.03,-0.03,-0.41,0.06,-0.04,0.32
6.749,-0.03,-0.03,-0.41,0.08,-0.07,0.12
6.75,0.00,-0.01,-0.40,0.08,-0.07,0.12
6.754,0.00,-0.01,-0.40,0.08,-0.07,-0.09
6.755,0.02,0.02,-0.39,0.08,-0.07,-0.09
6.767,0.02,0.02,-0.39,0.07,-0.07,-0.34
6.769,0.04,0.04,-0.39,0.07,-0.07,-0.34
6.77,0.04,0.04,-0.39,0.07,-0.04,-0.53
6.771,0.05,0.06,-0.39,0.07,-0.04,-0.53
6.772,0.05,0.06,-0.39,0.05,-0.07,-0.73
6.773,0.06,0.06,-0.38,0.05,-0.07,-0.73
6.775,0.06,0.06,-0.38,0.08,-0.08,-0.92
6.776,0.05,0.06,-0.38,0.08,-0.08,-0.92
6.78,0.05,0.05,-0.37,0.08,-0.08,-0.92
6.782,0.05,0.05,-0.37,0.05,-0.11,-1.04
6.785,0.05,0.05,-0.37,0.11,-0.10,-1.15
6.786,0.04,0.03,-0.36,0.11,-0.10,-1.15
6.798,0.04,0.03,-0.36,0.11,-0.11,-1.26
6.799,0.02,-0.00,-0.36,0.11,-0.11,-1.26
6.802,0.02,-0.00,-0.36,0.13,-0.11,-1.28
6.803,-0.00,-0.04,-0.35,0.13,-0.11,-1.28
6.804,-0.00,-0.04,-0.35,0.17,-0.16,-1.27
6.805,-0.02,-0.08,-0.34,0.17,-0.16,-1.27
6.806,-0.02,-0.08,-0.34,0.20,-0.15,-1.16
6.807,-0.04,-0.13,-0.33,0.20,-0.15,-1.16
6.813,-0.05,-0.20,-0.32,0.20,-0.15,-1.16
6.814,-0.05,-0.20,-0.32,0.25,-0.11,-1.01
6.816,-0.05,-0.20,-0.32,0.29,-0.14,-0.90
6.817,-0.06,-0.25,-0.32,0.29,-0.14,-0.90
6.82,-0.06,-0.25,-0.32,0.34,-0.13,-0.71
6.82,-0.06,-0.31,-0.31,0.34,-0.13,-0.71
6.825,-0.06,-0.31,-0.31,0.38,-0.13,-0.45
6.827,-0.05,-0.37,-0.31,0.38,-0.13,-0.45
6.83,-0.03,-0.40,-0.32,0.38,-0.13,-0.45
6.831,-0.03,-0.40,-0.32,0.43,-0.19,-0.27
6.835,-0.01,-0.43,-0.32,0.43,-0.19,-0.27
6.835,-0.01,-0.43,-0.32,0.49,-0.22,-0.09
6.843,-0.01,-0.43,-0.32,0.51,-0.24,0.10
6.845,0.03,-0.44,-0.33,0.51,-0.24,0.10
6.846,0.03,-0.44,-0.33,0.52,-0.25,0.23
6.847,0.06,-0.44,-0.33,0.52,-0.25,0.23
6.85,0.10,-0.43,-0.35,0.52,-0.25,0.23
6.851,0.10,-0.43,-0.35,0.50,-0.29,0.31
6.855,0.10,-0.43,-0.35,0.48,-0.37,0.28
6.857,0.13,-0.41,-0.36,0.48,-0.37,0.28
6.861,0.13,-0.41,-0.36,0.51,-0.40,0.26
6.862,0.16,-0.37,-0.38,0.51,-0.40,0.26
6.866,0.18,-0.33,-0.39,0.51,-0.40,0.26
6.867,0.18,-0.33,-0.39,0.49,-0.36,0.20
6.87,0.19,-0.30,-0.41,0.49,-0.36,0.20
6.871,0.19,-0.30,-0.41,0.48,-0.41,0.07
6.885,0.19,-0.30,-0.41,0.48,-0.42,-0.04
6.887,0.19,-0.26,-0.42,0.48,-0.42,-0.04
6.889,0.19,-0.26,-0.42,0.48,-0.43,-0.14
6.89,0.18,-0.23,-0.43,0.48,-0.43,-0.14
6.891,0.17,-0.21,-0.45,0.48,-0.43,-0.14
6.893,0.17,-0.21,-0.45,0.51,-0.46,-0.30
6.894,0.17,-0.21,-0.45,0.48,-0.45,-0.31
6.896,0.15,-0.20,-0.46,0.48,-0.45,-0.31
6.897,0.15,-0.20,-0.46,0.48,-0.43,-0.35
6.898,0.13,-0.19,-0.48,0.48,-0.43,-0.35
6.901,0.13,-0.19,-0.48,0.51,-0.43,-0.35
6.903,0.11,-0.19,-0.50,0.51,-0.43,-0.35
6.906,0.09,-0.19,-0.52,0.51,-0.43,-0.35
6.907,0.09,-0.19,-0.52,0.48,-0.45,-0.32
6.91,0.09,-0.19,-0.52,0.46,-0.47,-0.28
6.912,0.08,-0.20,-0.55,0.46,-0.47,-0.28
6.915,0.07,-0.22,-0.56,0.46,-0.47,-0.28
6.916,0.07,-0.22,-0.56,0.45,-0.53,-0.17
6.921,0.07,-0.23,-0.58,0.45,-0.53,-0.17
6.921,0.07,-0.23,-0.58,0.42,-0.57,-0.11
6.926,0.07,-0.23,-0.58,0.43,-0.58,-0.01
6.928,0.07,-0.25,-0.60,0.43,-0.58,-0.01
6.931,0.07,-0.26,-0.62,0.43,-0.58,-0.01
6.932,0.07,-0.26,-0.62,0.43,-0.64,0.02
6.936,0.08,-0.28,-0.63,0.43,-0.64,0.02
6.937,0.08,-0.28,-0.63,0.39,-0.68,0.04
6.942,0.08,-0.29,-0.65,0.39,-0.68,0.04
6.944,0.08,-0.29,-0.65,0.36,-0.70,0.13
6.947,0.09,-0.29,-0.66,0.36,-0.70,0.13
6.948,0.09,-0.29,-0.66,0.33,-0.71,0.13
6.951,0.09,-0.30,-0.68,0.33,-0.71,0.13
6.951,0.09,-0.30,-0.68,0.31,-0.73,0.20
6.956,0.09,-0.30,-0.69,0.31,-0.73,0.20
6.957,0.09,-0.30,-0.69,0.26,-0.76,0.25
6.961,0.10,-0.30,-0.70,0.26,-0.76,0.25
6.963,0.10,-0.30,-0.70,0.21,-0.78,0.28
6.966,0.10,-0.30,-0.70,0.18,-0.81,0.32
6.967,0.10,-0.30,-0.70,0.18,-0.81,0.32
6.971,0.10,-0.30,-0.70,0.18,-0.84,0.32
6.972,0.09,-0.29,-0.71,0.18,-0.84,0.32
6.976,0.09,-0.28,-0.71,0.18,-0.84,0.32
6.979,0.09,-0.28,-0.71,0.17,-0.87,0.32
6.981,0.08,-0.25,-0.72,0.17,-0.87,0.32
6.982,0.08,-0.25,-0.72,0.17,-0.89,0.34
6.986,0.07,-0.23,-0.73,0.17,-0.89,0.34
6.988,0.07,-0.23,-0.73,0.12,-0.90,0.37
6.993,0.07,-0.23,-0.73,0.05,-0.90,0.34
6.995,0.07,-0.21,-0.73,0.05,-0.90,0.34
6.997,0.07,-0.21,-0.73,-0.02,-0.88,0.34
6.998,0.06,-0.18,-0.73,-0.02,-0.88,0.34
7.001,0.06,-0.16,-0.72,-0.02,-0.88,0.34
7.002,0.06,-0.16,-0.72,-0.09,-0.83,0.32
7.006,0.05,-0.13,-0.72,-0.09,-0.83,0.32
7.008,0.05,-0.13,-0.72,-0.14,-0.84,0.30
7.012,0.06,-0.10,-0.71,-0.14,-0.84,0.30
7.014,0.06,-0.10,-0.71,-0.11,-0.84,0.21
7.016,0.06,-0.10,-0.71,-0.13,-0.80,0.08
7.018,0.05,-0.07,-0.70,-0.13,-0.80,0.08
7.021,0.06,-0.03,-0.69,-0.13,-0.80,0.08
7.022,0.06,-0.03,-0.69,-0.12,-0.80,-0.04
7.036,0.06,-0.03,-0.69,-0.15,-0.80,-0.14
7.039,0.06,0.00,-0.68,-0.15,-0.80,-0.14
7.04,0.06,0.03,-0.67,-0.15,-0.80,-0.14
7.041,0.06,0.03,-0.67,-0.16,-0.75,-0.29
7.043,0.06,0.06,-0.66,-0.16,-0.75,-0.29
7.044,0.06,0.06,-0.66,-0.18,-0.72,-0.47
7.057,0.06,0.08,-0.64,-0.18,-0.72,-0.47
7.058,0.06,0.08,-0.64,-0.19,-0.68,-0.71
7.061,0.06,0.08,-0.64,-0.22,-0.62,-0.84
7.062,0.05,0.09,-0.63,-0.22,-0.62,-0.84
7.063,0.05,0.10,-0.62,-0.22,-0.62,-0.84
7.064,0.05,0.10,-0.62,-0.21,-0.54,-1.02
7.065,0.04,0.09,-0.60,-0.21,-0.54,-1.02
7.066,0.04,0.09,-0.60,-0.25,-0.45,-1.18
7.067,0.04,0.09,-0.60,-0.27,-0.40,-1.28
7.068,0.03,0.09,-0.59,-0.27,-0.40,-1.28
7.069,0.03,0.09,-0.59,-0.29,-0.34,-1.36
7.069,0.02,0.07,-0.57,-0.29,-0.34,-1.36
7.072,0.01,0.05,-0.56,-0.29,-0.34,-1.36
7.074,0.01,0.05,-0.56,-0.29,-0.30,-1.44
7.077,0.01,0.05,-0.56,-0.29,-0.24,-1.49
7.078,0.00,0.03,-0.54,-0.29,-0.24,-1.49
7.082,-0.00,0.02,-0.53,-0.29,-0.24,-1.49
7.084,-0.00,0.02,-0.53,-0.28,-0.19,-1.51
7.087,-0.01,0.01,-0.51,-0.28,-0.19,-1.51
7.089,-0.01,0.01,-0.51,-0.29,-0.12,-1.49
7.093,-0.01,-0.01,-0.50,-0.29,-0.12,-1.49
7.095,-0.01,-0.01,-0.50,-0.27,-0.10,-1.46
7.098,-0.01,-0.01,-0.50,-0.27,-0.06,-1.46
7.099,-0.01,-0.02,-0.49,-0.27,-0.06,-1.46
7.102,-0.01,-0.02,-0.49,-0.33,-0.04,-1.41
7.103,-0.01,-0.03,-0.48,-0.33,-0.04,-1.41
7.107,-0.01,-0.03,-0.48,-0.35,0.02,-1.35
7.108,-0.01,-0.05,-0.46,-0.35,0.02,-1.35
7.112,-0.01,-0.06,-0.45,-0.35,0.02,-1.35
7.113,-0.01,-0.06,-0.45,-0.38,0.07,-1.28
7.117,-0.01,-0.06,-0.45,-0.41,0.09,-1.21
7.118,-0.00,-0.08,-0.43,-0.41,0.09,-1.21
7.122,0.01,-0.09,-0.41,-0.41,0.09,-1.21
7.123,0.01,-0.09,-0.41,-0.40,0.13,-1.10
7.127,0.01,-0.09,-0.41,-0.39,0.15,-0.97
7.129,0.01,-0.10,-0.40,-0.39,0.15,-0.97
7.132,0.01,-0.11,-0.39,-0.39,0.15,-0.97
7.133,0.01,-0.11,-0.39,-0.31,0.18,-0.97
7.137,0.02,-0.10,-0.38,-0.31,0.18,-0.97
7.138,0.02,-0.10,-0.38,-0.25,0.24,-0.92
7.142,0.02,-0.10,-0.38,-0.21,0.27,-0.86
7.144,0.02,-0.09,-0.39,-0.21,0.27,-0.86
7.148,0.02,-0.09,-0.39,-0.17,0.37,-0.77
7.149,0.01,-0.09,-0.40,-0.17,0.37,-0.77
7.152,0.01,-0.09,-0.40,-0.17,0.39,-0.67
7.153,0.00,-0.10,-0.41,-0.17,0.39,-0.67
7.174,-0.01,-0.09,-0.43,-0.17,0.39,-0.67
7.177,-0.01,-0.09,-0.43,-0.13,0.43,-0.73
7.178,-0.01,-0.09,-0.43,-0.12,0.46,-0.64
7.179,-0.03,-0.08,-0.45,-0.12,0.46,-0.64
7.181,-0.03,-0.08,-0.45,-0.10,0.48,-0.53
7.182,-0.04,-0.07,-0.47,-0.10,0.48,-0.53
7.183,-0.04,-0.07,-0.47,-0.06,0.52,-0.41
7.184,-0.06,-0.07,-0.50,-0.06,0.52,-0.41
7.185,-0.06,-0.07,-0.50,-0.11,0.53,-0.34
7.186,-0.08,-0.07,-0.52,-0.11,0.53,-0.34
7.187,-0.10,-0.06,-0.54,-0.11,0.53,-0.34
7.188,-0.10,-0.06,-0.54,-0.21,0.58,-0.25
7.189,-0.10,-0.06,-0.54,-0.28,0.58,-0.14
7.19,-0.11,-0.05,-0.56,-0.28,0.58,-0.14
7.193,-0.12,-0.04,-0.57,-0.28,0.58,-0.14
7.194,-0.12,-0.04,-0.57,-0.33,0.54,-0.01
7.198,-0.13,-0.03,-0.57,-0.33,0.54,-0.01
7.198,-0.13,-0.03,-0.57,-0.42,0.50,0.05
7.203,-0.13,-0.03,-0.57,-0.49,0.43,0.13
7.203,-0.13,-0.02,-0.57,-0.49,0.43,0.13
7.209,-0.13,-0.02,-0.57,-0.52,0.35,0.20
7.211,-0.12,-0.00,-0.56,-0.52,0.35,0.20
7.213,-0.12,-0.00,-0.56,-0.54,0.30,0.22
7.214,-0.10,0.02,-0.56,-0.54,0.30,0.22
7.218,-0.08,0.04,-0.55,-0.54,0.30,0.22
7.219,-0.08,0.04,-0.55,-0.57,0.25,0.19
7.223,-0.08,0.04,-0.55,-0.60,0.25,0.16
7.225,-0.06,0.07,-0.53,-0.60,0.25,0.16
7.228,-0.03,0.09,-0.52,-0.60,0.25,0.16
7.231,-0.03,0.09,-0.52,-0.64,0.22,0.12
7.234,-0.03,0.09,-0.52,-0.67,0.27,0.03
7.235,-0.00,0.11,-0.50,-0.67,0.27,0.03
7.239,-0.00,0.11,-0.50,-0.70,0.27,-0.08
7.24,0.03,0.13,-0.48,-0.70,0.27,-0.08
7.243,0.05,0.13,-0.46,-0.70,0.27,-0.08
7.246,0.05,0.13,-0.46,-0.73,0.28,-0.13
7.248,0.08,0.13,-0.44,-0.73,0.28,-0.13
7.249,0.08,0.13,-0.44,-0.73,0.31,-0.28
7.253,0.10,0.13,-0.43,-0.73,0.31,-0.28
7.254,0.10,0.13,-0.43,-0.65,0.33,-0.43
7.259,0.12,0.12,-0.41,-0.65,0.33,-0.43
7.261,0.12,0.12,-0.41,-0.63,0.31,-0.53
7.263,0.12,0.12,-0.41,-0.60,0.34,-0.65
7.264,0.14,0.11,-0.39,-0.60,0.34,-0.65
7.268,0.14,0.11,-0.39,-0.56,0.38,-0.78
7.269,0.15,0.09,-0.38,-0.56,0.38,-0.78
7.273,0.16,0.07,-0.36,-0.56,0.38,-0.78
7.274,0.16,0.07,-0.36,-0.56,0.38,-0.89
7.278,0.16,0.07,-0.36,-0.58,0.35,-0.95
7.28,0.17,0.04,-0.35,-0.58,0.35,-0.95
7.283,0.17,0.04,-0.35,-0.53,0.39,-1.02
7.284,0.17,0.01,-0.33,-0.53,0.39,-1.02
7.288,0.17,0.01,-0.33,-0.53,0.38,-1.07
7.289,0.18,-0.02,-0.32,-0.53,0.38,-1.07
7.302,0.18,-0.05,-0.31,-0.53,0.38,-1.07
7.303,0.18,-0.05,-0.31,-0.52,0.38,-1.11
7.304,0.18,-0.05,-0.31,-0.48,0.35,-1.14
7.307,0.19,-0.07,-0.30,-0.48,0.35,-1.14
7.308,0.19,-0.10,-0.28,-0.48,0.35,-1.14
7.309,0.19,-0.10,-0.28,-0.49,0.38,-1.18
7.31,0.19,-0.10,-0.28,-0.48,0.37,-1.22
7.311,0.19,-0.12,-0.27,-0.48,0.37,-1.22
7.322,0.20,-0.13,-0.27,-0.48,0.37,-1.22
7.323,0.20,-0.13,-0.27,-0.41,0.38,-1.26
7.324,0.20,-0.13,-0.27,-0.43,0.42,-1.25
7.326,0.20,-0.14,-0.26,-0.43,0.42,-1.25
7.327,0.20,-0.14,-0.26,-0.46,0.41,-1.24
7.328,0.20,-0.15,-0.25,-0.46,0.41,-1.24
7.328,0.20,-0.15,-0.25,-0.45,0.44,-1.27
7.329,0.20,-0.16,-0.24,-0.45,0.44,-1.27
7.333,0.20,-0.16,-0.24,-0.41,0.48,-1.25
7.334,0.20,-0.17,-0.24,-0.41,0.48,-1.25
7.338,0.20,-0.18,-0.24,-0.41,0.48,-1.25
7.339,0.20,-0.18,-0.24,-0.39,0.50,-1.25
7.343,0.20,-0.18,-0.24,-0.35,0.51,-1.24
7.345,0.20,-0.18,-0.23,-0.35,0.51,-1.24
7.348,0.20,-0.18,-0.23,-0.29,0.55,-1.23
7.349,0.19,-0.19,-0.23,-0.29,0.55,-1.23
7.353,0.19,-0.19,-0.24,-0.29,0.55,-1.23
7.354,0.19,-0.19,-0.24,-0.20,0.55,-1.26
7.358,0.19,-0.19,-0.24,-0.18,0.50,-1.33
7.36,0.18,-0.19,-0.25,-0.18,0.50,-1.33
7.364,0.17,-0.18,-0.26,-0.18,0.50,-1.33
7.365,0.17,-0.18,-0.26,-0.14,0.53,-1.33
7.368,0.16,-0.18,-0.27,-0.14,0.53,-1.33
7.369,0.16,-0.18,-0.27,-0.14,0.52,-1.34
7.375,0.14,-0.17,-0.29,-0.14,0.52,-1.34
7.377,0.14,-0.17,-0.29,-0.10,0.52,-1.31
7.379,0.12,-0.16,-0.31,-0.10,0.52,-1.31
7.38,0.12,-0.16,-0.31,-0.12,0.51,-1.35
7.384,0.12,-0.16,-0.31,-0.18,0.48,-1.32
7.385,0.10,-0.15,-0.33,-0.18,0.48,-1.32
7.389,0.10,-0.15,-0.33,-0.20,0.49,-1.31
7.39,0.09,-0.15,-0.34,-0.20,0.49,-1.31
7.394,0.09,-0.15,-0.34,-0.24,0.46,-1.28
7.396,0.07,-0.14,-0.36,-0.24,0.46,-1.28
7.399,0.07,-0.14,-0.36,-0.29,0.39,-1.30
7.4,0.05,-0.13,-0.37,-0.29,0.39,-1.30
7.404,0.05,-0.13,-0.37,-0.37,0.41,-1.26
7.405,0.03,-0.13,-0.38,-0.37,0.41,-1.26
7.409,0.02,-0.13,-0.38,-0.37,0.41,-1.26
7.412,0.02,-0.13,-0.38,-0.44,0.42,-1.21
7.415,0.01,-0.13,-0.39,-0.44,0.42,-1.21
7.416,0.01,-0.13,-0.39,-0.48,0.39,-1.14
7.42,0.01,-0.13,-0.39,-0.50,0.37,-1.09
7.421,-0.00,-0.12,-0.39,-0.50,0.37,-1.09
7.425,-0.00,-0.12,-0.39,-0.53,0.38,-1.06
7.427,-0.01,-0.12,-0.38,-0.53,0.38,-1.06
7.43,-0.01,-0.12,-0.38,-0.55,0.37,-0.96
7.431,-0.02,-0.13,-0.38,-0.55,0.37,-0.96
7.434,-0.02,-0.13,-0.38,-0.55,0.37,-0.96
7.435,-0.02,-0.13,-0.38,-0.56,0.39,-0.94
7.439,-0.02,-0.13,-0.38,-0.59,0.38,-0.94
7.44,-0.02,-0.12,-0.38,-0.59,0.38,-0.94
7.445,-0.02,-0.12,-0.38,-0.62,0.40,-0.85
7.446,-0.03,-0.12,-0.38,-0.62,0.40,-0.85
7.449,-0.03,-0.12,-0.38,-0.66,0.43,-0.77
7.45,-0.03,-0.13,-0.38,-0.66,0.43,-0.77
7.454,-0.03,-0.13,-0.38,-0.71,0.43,-0.72
7.455,-0.02,-0.13,-0.38,-0.71,0.43,-0.72
7.467,-0.02,-0.14,-0.38,-0.71,0.43,-0.72
7.469,-0.02,-0.14,-0.38,-0.76,0.43,-0.66
7.471,-0.02,-0.14,-0.38,-0.82,0.46,-0.61
7.472,-0.02,-0.15,-0.38,-0.82,0.46,-0.61
7.473,-0.02,-0.15,-0.38,-0.86,0.44,-0.57
7.474,-0.02,-0.16,-0.37,-0.86,0.44,-0.57
7.475,-0.03,-0.16,-0.36,-0.86,0.44,-0.57
7.476,-0.03,-0.16,-0.36,-0.91,0.41,-0.56
7.481,-0.03,-0.16,-0.36,-0.95,0.43,-0.48
7.483,-0.04,-0.17,-0.35,-0.95,0.43,-0.48
7.486,-0.04,-0.17,-0.35,-0.98,0.44,-0.42
7.487,-0.05,-0.17,-0.34,-0.98,0.44,-0.42
7.49,-0.05,-0.17,-0.34,-0.99,0.46,-0.34
7.491,-0.05,-0.18,-0.32,-0.99,0.46,-0.34
7.496,-0.06,-0.18,-0.31,-0.99,0.46,-0.34
7.498,-0.06,-0.18,-0.31,-1.04,0.42,-0.28
7.501,-0.07,-0.18,-0.29,-1.04,0.42,-0.28
7.502,-0.07,-0.18,-0.29,-1.06,0.43,-0.16
7.505,-0.08,-0.18,-0.27,-1.06,0.43,-0.16
7.506,-0.08,-0.18,-0.27,-1.06,0.47,-0.06
7.51,-0.08,-0.19,-0.25,-1.06,0.47,-0.06
7.512,-0.08,-0.19,-0.25,-1.02,0.44,0.03
7.515,-0.07,-0.18,-0.23,-1.02,0.44,0.03
7.516,-0.07,-0.18,-0.23,-0.98,0.45,0.18
7.52,-0.07,-0.18,-0.23,-0.91,0.50,0.30
7.521,-0.06,-0.17,-0.22,-0.91,0.50,0.30
7.526,-0.05,-0.16,-0.21,-0.91,0.50,0.30
7.528,-0.05,-0.16,-0.21,-0.85,0.48,0.36
7.53,-0.03,-0.16,-0.20,-0.85,0.48,0.36
7.531,-0.03,-0.16,-0.20,-0.84,0.43,0.37
7.536,-0.02,-0.14,-0.18,-0.84,0.43,0.37
7.537,-0.02,-0.14,-0.18,-0.83,0.44,0.34
7.54,-0.00,-0.12,-0.17,-0.83,0.44,0.34
7.541,-0.00,-0.12,-0.17,-0.80,0.48,0.33
7.554,-0.00,-0.12,-0.17,-0.75,0.45,0.31
7.555,0.02,-0.09,-0.15,-0.75,0.45,0.31
7.558,0.02,-0.09,-0.15,-0.76,0.43,0.19
7.559,0.03,-0.06,-0.13,-0.76,0.43,0.19
7.56,0.03,-0.06,-0.13,-0.73,0.41,0.06
7.561,0.04,-0.03,-0.10,-0.73,0.41,0.06
7.562,0.04,-0.03,-0.10,-0.68,0.45,-0.05
7.563,0.04,-0.01,-0.08,-0.68,0.45,-0.05
7.565,0.05,0.02,-0.07,-0.68,0.45,-0.05
7.567,0.05,0.02,-0.07,-0.65,0.50,-0.19
7.57,0.05,0.02,-0.07,-0.59,0.54,-0.28
7.571,0.04,0.04,-0.05,-0.59,0.54,-0.28
7.575,0.04,0.04,-0.05,-0.56,0.59,-0.37
7.576,0.04,0.06,-0.04,-0.56,0.59,-0.37
7.58,0.04,0.06,-0.04,-0.49,0.61,-0.49
7.581,0.03,0.07,-0.03,-0.49,0.61,-0.49
7.585,0.03,0.07,-0.03,-0.46,0.69,-0.59
7.586,0.02,0.07,-0.03,-0.46,0.69,-0.59
7.59,0.02,0.07,-0.03,-0.44,0.71,-0.56
7.591,0.00,0.06,-0.03,-0.44,0.71,-0.56
7.6,-0.01,0.05,-0.03,-0.44,0.71,-0.56
7.602,-0.01,0.05,-0.03,-0.41,0.78,-0.56
7.603,-0.01,0.05,-0.03,-0.40,0.81,-0.56
7.604,-0.02,0.03,-0.02,-0.40,0.81,-0.56
7.606,-0.04,0.01,-0.02,-0.40,0.81,-0.56
7.607,-0.04,0.01,-0.02,-0.43,0.83,-0.52
7.61,-0.04,-0.02,-0.02,-0.43,0.83,-0.52
7.612,-0.04,-0.02,-0.02,-0.43,0.83,-0.43
7.615,-0.05,-0.04,-0.01,-0.43,0.83,-0.43
7.616,-0.05,-0.04,-0.01,-0.37,0.88,-0.35
7.62,-0.05,-0.04,-0.01,-0.35,0.91,-0.21
7.621,-0.04,-0.07,-0.01,-0.35,0.91,-0.21
7.626,-0.04,-0.10,-0.01,-0.35,0.91,-0.21
7.628,-0.04,-0.10,-0.01,-0.28,0.91,-0.12
7.631,-0.04,-0.10,-0.01,-0.27,0.90,-0.04
7.632,-0.03,-0.12,-0.01,-0.27,0.90,-0.04
7.635,-0.01,-0.13,-0.01,-0.27,0.90,-0.04
7.636,-0.01,-0.13,-0.01,-0.30,0.89,0.06
7.642,0.00,-0.15,-0.01,-0.30,0.89,0.06
7.644,0.00,-0.15,-0.01,-0.28,0.91,0.14
7.646,0.01,-0.16,-0.01,-0.28,0.91,0.14
7.646,0.01,-0.16,-0.01,-0.28,0.87,0.19
7.651,0.03,-0.17,-0.01,-0.28,0.87,0.19
7.651,0.03,-0.17,-0.01,-0.27,0.85,0.26
7.656,0.04,-0.17,-0.01,-0.27,0.85,0.26
7.657,0.04,-0.17,-0.01,-0.30,0.86,0.28
7.661,0.04,-0.17,-0.01,-0.29,0.83,0.36
7.663,0.06,-0.17,-0.00,-0.29,0.83,0.36
7.666,0.06,-0.17,-0.00,-0.15,0.81,0.42
7.667,0.07,-0.17,-0.00,-0.15,0.81,0.42
7.671,0.07,-0.17,-0.00,-0.10,0.78,0.48
7.672,0.08,-0.15,-0.01,-0.10,0.78,0.48
