
time,ax,ay,az,wx,wy,wz
0.004,0.85,-0.25,0.64,0.25,-0.06,0.37
0.005,0.85,-0.25,0.64,0.25,-0.05,0.37
0.005,0.85,-0.25,0.64,0.26,-0.05,0.37
0.006,0.95,-0.35,0.43,0.26,-0.05,0.37
0.006,0.95,-0.35,0.43,0.26,-0.03,0.37
0.006,0.95,-0.35,0.43,0.27,-0.02,0.37
0.006,0.95,-0.35,0.43,0.27,-0.00,0.36
0.007,1.07,-0.47,0.19,0.27,-0.00,0.36
0.007,1.07,-0.47,0.19,0.28,0.02,0.36
0.007,1.29,-0.64,0.03,0.28,0.02,0.36
0.007,1.29,-0.64,0.03,0.28,0.04,0.34
0.007,1.29,-0.64,0.03,0.29,0.06,0.33
0.008,1.55,-0.77,-0.17,0.29,0.06,0.33
0.008,1.55,-0.77,-0.17,0.29,0.07,0.32
0.008,1.55,-0.77,-0.17,0.29,0.09,0.30
0.008,1.78,-0.87,-0.36,0.29,0.09,0.30
0.008,1.78,-0.87,-0.36,0.29,0.09,0.28
0.009,1.78,-0.87,-0.36,0.28,0.10,0.26
0.009,1.94,-0.95,-0.57,0.28,0.10,0.26
0.009,1.94,-0.95,-0.57,0.27,0.10,0.25
0.011,1.94,-0.95,-0.57,0.26,0.11,0.23
0.013,2.03,-0.97,-0.77,0.26,0.11,0.23
0.013,2.03,-0.97,-0.77,0.25,0.11,0.22
0.015,2.03,-0.97,-0.77,0.24,0.10,0.20
0.018,2.04,-0.93,-0.94,0.24,0.10,0.20
0.018,2.04,-0.93,-0.94,0.22,0.11,0.19
0.019,2.04,-0.93,-0.94,0.21,0.10,0.18
0.021,2.00,-0.84,-1.09,0.21,0.10,0.18
0.021,2.00,-0.84,-1.09,0.19,0.11,0.16
0.023,2.00,-0.84,-1.09,0.18,0.11,0.16
0.025,1.93,-0.71,-1.18,0.18,0.11,0.16
0.025,1.93,-0.71,-1.18,0.16,0.11,0.15
0.027,1.93,-0.71,-1.18,0.14,0.12,0.14
0.029,1.84,-0.53,-1.23,0.14,0.12,0.14
0.029,1.84,-0.53,-1.23,0.13,0.12,0.13
0.031,1.84,-0.53,-1.23,0.11,0.12,0.13
0.034,1.73,-0.35,-1.23,0.11,0.12,0.13
0.034,1.73,-0.35,-1.23,0.10,0.13,0.12
0.035,1.73,-0.35,-1.23,0.08,0.12,0.12
0.037,1.59,-0.19,-1.19,0.08,0.12,0.12
0.037,1.59,-0.19,-1.19,0.06,0.12,0.11
0.039,1.59,-0.19,-1.19,0.04,0.12,0.11
0.041,1.47,-0.08,-1.14,0.04,0.12,0.11
0.041,1.47,-0.08,-1.14,0.03,0.12,0.11
0.043,1.47,-0.08,-1.14,0.01,0.11,0.12
0.045,1.30,-0.05,-1.04,0.01,0.11,0.12
0.045,1.30,-0.05,-1.04,-0.01,0.10,0.12
0.047,1.30,-0.05,-1.04,-0.02,0.09,0.13
0.061,1.01,-0.09,-0.87,-0.02,0.09,0.13
0.062,1.01,-0.09,-0.87,-0.03,0.09,0.14
0.062,1.01,-0.09,-0.87,-0.04,0.08,0.15
0.062,0.73,-0.00,-0.67,-0.04,0.08,0.15
0.063,0.73,-0.00,-0.67,-0.05,0.07,0.15
0.063,0.73,-0.00,-0.67,-0.06,0.05,0.15
0.063,0.64,0.06,-0.49,-0.06,0.05,0.15
0.064,0.64,0.06,-0.49,-0.06,0.04,0.16
0.064,0.64,0.06,-0.49,-0.07,0.02,0.16
0.064,0.62,0.11,-0.36,-0.07,0.02,0.16
0.065,0.62,0.11,-0.36,-0.07,0.01,0.16
0.065,0.62,0.11,-0.36,-0.07,-0.01,0.17
0.065,0.55,0.13,-0.21,-0.07,-0.01,0.17
0.065,0.55,0.13,-0.21,-0.08,-0.02,0.16
0.067,0.55,0.13,-0.21,-0.08,-0.04,0.16
0.069,0.51,0.13,-0.04,-0.08,-0.04,0.16
0.069,0.51,0.13,-0.04,-0.08,-0.05,0.16
0.071,0.51,0.13,-0.04,-0.08,-0.07,0.16
0.073,0.46,0.10,0.12,-0.08,-0.07,0.16
0.073,0.46,0.10,0.12,-0.08,-0.08,0.16
0.075,0.46,0.10,0.12,-0.08,-0.10,0.15
0.077,0.42,0.06,0.28,-0.08,-0.10,0.15
0.077,0.42,0.06,0.28,-0.08,-0.11,0.15
0.079,0.42,0.06,0.28,-0.08,-0.12,0.15
0.081,0.35,0.02,0.41,-0.08,-0.12,0.15
0.081,0.35,0.02,0.41,-0.07,-0.13,0.14
0.086,0.35,0.02,0.41,-0.07,-0.13,0.15
0.086,0.24,0.01,0.53,-0.07,-0.13,0.15
0.087,0.24,0.01,0.53,-0.06,-0.14,0.14
0.087,0.24,0.01,0.53,-0.06,-0.14,0.14
0.089,0.15,-0.02,0.64,-0.06,-0.14,0.14
0.089,0.15,-0.02,0.64,-0.06,-0.14,0.14
0.091,0.15,-0.02,0.64,-0.05,-0.14,0.15
0.093,0.02,-0.00,0.75,-0.05,-0.14,0.15
0.093,0.02,-0.00,0.75,-0.04,-0.14,0.15
0.095,0.02,-0.00,0.75,-0.04,-0.14,0.15
0.097,-0.08,-0.02,0.84,-0.04,-0.14,0.15
0.097,-0.08,-0.02,0.84,-0.03,-0.13,0.16
0.1,-0.08,-0.02,0.84,-0.02,-0.13,0.16
0.101,-0.17,-0.03,0.94,-0.02,-0.13,0.16
0.101,-0.17,-0.03,0.94,-0.00,-0.12,0.17
0.103,-0.17,-0.03,0.94,0.01,-0.12,0.17
0.105,-0.22,-0.03,0.99,0.01,-0.12,0.17
0.105,-0.22,-0.03,0.99,0.02,-0.12,0.18
0.108,-0.22,-0.03,0.99,0.04,-0.11,0.19
0.109,-0.23,-0.04,1.04,0.04,-0.11,0.19
0.109,-0.23,-0.04,1.04,0.05,-0.11,0.19
0.111,-0.23,-0.04,1.04,0.06,-0.11,0.19
0.113,-0.22,-0.02,1.05,0.06,-0.11,0.19
0.113,-0.22,-0.02,1.05,0.08,-0.10,0.20
0.114,-0.22,-0.02,1.05,0.09,-0.10,0.20
0.117,-0.20,-0.02,1.05,0.09,-0.10,0.20
0.117,-0.20,-0.02,1.05,0.11,-0.10,0.20
0.12,-0.20,-0.02,1.05,0.13,-0.10,0.21
0.121,-0.17,0.01,1.01,0.13,-0.10,0.21
0.121,-0.17,0.01,1.01,0.14,-0.09,0.21
0.123,-0.17,0.01,1.01,0.16,-0.09,0.21
0.125,-0.12,0.03,0.94,0.16,-0.09,0.21
0.125,-0.12,0.03,0.94,0.17,-0.09,0.21
0.126,-0.12,0.03,0.94,0.19,-0.08,0.21
0.129,-0.06,0.00,0.84,0.19,-0.08,0.21
0.129,-0.06,0.00,0.84,0.20,-0.07,0.22
0.13,-0.06,0.00,0.84,0.21,-0.07,0.22
0.133,0.01,-0.01,0.72,0.21,-0.07,0.22
0.133,0.01,-0.01,0.72,0.22,-0.07,0.22
0.137,0.01,-0.01,0.72,0.22,-0.06,0.22
0.137,0.06,-0.03,0.58,0.22,-0.06,0.22
0.138,0.06,-0.03,0.58,0.23,-0.05,0.22
0.139,0.06,-0.03,0.58,0.24,-0.05,0.22
0.141,0.13,-0.04,0.43,0.24,-0.05,0.22
0.141,0.13,-0.04,0.43,0.24,-0.05,0.22
0.143,0.13,-0.04,0.43,0.25,-0.04,0.22
0.145,0.18,-0.08,0.29,0.25,-0.04,0.22
0.145,0.18,-0.08,0.29,0.25,-0.04,0.22
0.147,0.18,-0.08,0.29,0.25,-0.03,0.22
0.15,0.24,-0.06,0.16,0.25,-0.03,0.22
0.15,0.24,-0.06,0.16,0.26,-0.03,0.21
0.15,0.24,-0.06,0.16,0.25,-0.03,0.21
0.152,0.24,-0.06,0.16,0.25,-0.03,0.20
0.154,0.26,-0.04,0.05,0.25,-0.03,0.20
0.155,0.26,-0.04,0.05,0.25,-0.03,0.20
0.156,0.30,0.01,0.01,0.25,-0.03,0.20
0.157,0.30,0.01,0.01,0.26,-0.03,0.20
0.158,0.30,0.01,0.01,0.25,-0.03,0.19
0.16,0.30,0.04,-0.04,0.25,-0.03,0.19
0.161,0.30,0.04,-0.04,0.25,-0.03,0.19
0.162,0.30,0.04,-0.04,0.25,-0.03,0.18
0.164,0.31,0.07,-0.07,0.25,-0.03,0.18
0.164,0.31,0.07,-0.07,0.25,-0.02,0.18
0.177,0.31,0.07,-0.07,0.24,-0.02,0.17
0.177,0.28,0.10,-0.13,0.24,-0.02,0.17
0.177,0.28,0.10,-0.13,0.24,-0.02,0.17
0.178,0.28,0.10,-0.13,0.24,-0.01,0.17
0.178,0.23,0.10,-0.17,0.24,-0.01,0.17
0.178,0.23,0.10,-0.17,0.24,-0.01,0.17
0.179,0.23,0.10,-0.17,0.23,-0.00,0.17
0.179,0.22,0.11,-0.23,0.23,-0.00,0.17
0.179,0.22,0.11,-0.23,0.23,0.00,0.17
0.18,0.22,0.11,-0.23,0.23,0.01,0.17
0.18,0.21,0.10,-0.27,0.23,0.01,0.17
0.181,0.21,0.10,-0.27,0.23,0.01,0.17
0.183,0.21,0.10,-0.27,0.23,0.02,0.17
0.184,0.26,0.10,-0.29,0.23,0.02,0.17
0.185,0.26,0.10,-0.29,0.23,0.02,0.17
0.186,0.26,0.10,-0.29,0.22,0.03,0.17
0.189,0.29,0.09,-0.27,0.22,0.03,0.17
0.189,0.29,0.09,-0.27,0.22,0.04,0.16
0.19,0.29,0.09,-0.27,0.22,0.04,0.17
0.192,0.30,0.08,-0.24,0.22,0.04,0.17
0.193,0.30,0.08,-0.24,0.22,0.05,0.16
0.194,0.30,0.08,-0.24,0.22,0.04,0.16
0.196,0.30,0.06,-0.22,0.22,0.04,0.16
0.197,0.30,0.06,-0.22,0.22,0.04,0.16
0.198,0.30,0.06,-0.22,0.22,0.04,0.16
0.202,0.31,0.04,-0.23,0.22,0.04,0.16
0.203,0.31,0.04,-0.23,0.22,0.04,0.16
0.203,0.31,0.04,-0.23,0.21,0.04,0.16
0.204,0.35,-0.04,-0.23,0.21,0.04,0.16
0.205,0.35,-0.04,-0.23,0.21,0.04,0.17
0.206,0.35,-0.04,-0.23,0.20,0.05,0.17
0.208,0.38,-0.11,-0.25,0.20,0.05,0.17
0.209,0.38,-0.11,-0.25,0.20,0.05,0.17
0.21,0.38,-0.11,-0.25,0.19,0.06,0.18
0.212,0.38,-0.19,-0.25,0.19,0.06,0.18
0.213,0.38,-0.19,-0.25,0.19,0.07,0.18
0.214,0.38,-0.19,-0.25,0.18,0.07,0.19
0.216,0.40,-0.24,-0.28,0.18,0.07,0.19
0.217,0.40,-0.24,-0.28,0.18,0.07,0.19
0.219,0.40,-0.24,-0.28,0.17,0.07,0.20
0.221,0.38,-0.32,-0.30,0.17,0.07,0.20
0.221,0.38,-0.32,-0.30,0.17,0.07,0.20
0.222,0.38,-0.32,-0.30,0.16,0.07,0.20
0.224,0.38,-0.32,-0.30,0.16,0.07,0.20
0.225,0.41,-0.38,-0.31,0.16,0.07,0.20
0.226,0.41,-0.38,-0.31,0.16,0.07,0.21
0.228,0.41,-0.41,-0.31,0.16,0.07,0.21
0.229,0.41,-0.41,-0.31,0.16,0.07,0.21
0.23,0.41,-0.41,-0.31,0.16,0.06,0.21
0.233,0.39,-0.39,-0.27,0.16,0.06,0.21
0.233,0.39,-0.39,-0.27,0.16,0.06,0.21
0.234,0.39,-0.39,-0.27,0.16,0.06,0.21
0.236,0.32,-0.35,-0.21,0.16,0.06,0.21
0.237,0.32,-0.35,-0.21,0.16,0.05,0.21
0.238,0.32,-0.35,-0.21,0.16,0.05,0.21
0.241,0.28,-0.29,-0.16,0.16,0.05,0.21
0.242,0.28,-0.29,-0.16,0.16,0.04,0.21
0.242,0.28,-0.29,-0.16,0.16,0.03,0.21
0.244,0.27,-0.23,-0.12,0.16,0.03,0.21
0.245,0.27,-0.23,-0.12,0.16,0.04,0.22
0.246,0.27,-0.23,-0.12,0.16,0.04,0.22
0.248,0.26,-0.16,-0.05,0.16,0.04,0.22
0.249,0.26,-0.16,-0.05,0.16,0.04,0.22
0.25,0.26,-0.16,-0.05,0.17,0.04,0.22
0.252,0.28,-0.08,-0.00,0.17,0.04,0.22
0.253,0.28,-0.08,-0.00,0.17,0.04,0.22
0.254,0.28,-0.08,-0.00,0.17,0.04,0.22
0.256,0.25,-0.03,0.03,0.17,0.04,0.22
0.257,0.25,-0.03,0.03,0.17,0.04,0.22
0.258,0.25,-0.03,0.03,0.17,0.04,0.22
0.26,0.21,0.04,0.05,0.17,0.04,0.22
0.261,0.21,0.04,0.05,0.18,0.03,0.22
0.262,0.21,0.04,0.05,0.17,0.03,0.22
0.264,0.17,0.07,0.05,0.17,0.03,0.22
0.264,0.17,0.07,0.05,0.18,0.02,0.21
0.278,0.17,0.07,0.05,0.18,0.01,0.21
0.278,0.18,0.05,0.05,0.18,0.01,0.21
0.279,0.18,0.05,0.05,0.18,-0.00,0.21
0.279,0.18,0.05,0.05,0.18,-0.02,0.21
0.279,0.20,0.03,0.05,0.18,-0.02,0.21
0.28,0.20,0.03,0.05,0.17,-0.02,0.20
0.28,0.20,0.03,0.05,0.17,-0.03,0.20
0.28,0.22,-0.03,0.07,0.17,-0.03,0.20
0.281,0.22,-0.03,0.07,0.17,-0.04,0.19
0.281,0.22,-0.03,0.07,0.17,-0.05,0.19
0.281,0.26,-0.09,0.08,0.17,-0.05,0.19
0.281,0.26,-0.09,0.08,0.17,-0.05,0.18
0.283,0.26,-0.09,0.08,0.17,-0.06,0.18
0.284,0.28,-0.15,0.07,0.17,-0.06,0.18
0.284,0.28,-0.15,0.07,0.17,-0.07,0.18
0.286,0.28,-0.15,0.07,0.17,-0.08,0.17
0.288,0.29,-0.22,0.04,0.17,-0.08,0.17
0.289,0.29,-0.22,0.04,0.17,-0.09,0.17
0.29,0.29,-0.22,0.04,0.18,-0.09,0.17
0.292,0.32,-0.28,0.02,0.18,-0.09,0.17
0.293,0.32,-0.28,0.02,0.18,-0.10,0.16
0.294,0.32,-0.28,0.02,0.18,-0.10,0.16
0.296,0.36,-0.35,-0.02,0.18,-0.10,0.16
0.296,0.36,-0.35,-0.02,0.18,-0.10,0.15
0.298,0.36,-0.35,-0.02,0.17,-0.10,0.15
0.302,0.36,-0.35,-0.02,0.17,-0.10,0.15
0.303,0.35,-0.42,-0.06,0.17,-0.10,0.15
0.303,0.35,-0.42,-0.06,0.17,-0.11,0.15
0.304,0.34,-0.48,-0.09,0.17,-0.11,0.15
0.305,0.34,-0.48,-0.09,0.17,-0.12,0.14
0.306,0.34,-0.48,-0.09,0.17,-0.13,0.14
0.308,0.35,-0.52,-0.13,0.17,-0.13,0.14
0.309,0.35,-0.52,-0.13,0.17,-0.14,0.13
0.31,0.35,-0.52,-0.13,0.17,-0.15,0.13
0.312,0.39,-0.62,-0.16,0.17,-0.15,0.13
0.313,0.39,-0.62,-0.16,0.17,-0.17,0.12
0.314,0.39,-0.62,-0.16,0.17,-0.19,0.11
0.316,0.42,-0.67,-0.20,0.17,-0.19,0.11
0.317,0.42,-0.67,-0.20,0.17,-0.20,0.10
0.318,0.42,-0.67,-0.20,0.17,-0.22,0.10
0.32,0.46,-0.68,-0.21,0.17,-0.22,0.10
0.321,0.46,-0.68,-0.21,0.17,-0.24,0.09
0.322,0.46,-0.68,-0.21,0.16,-0.25,0.09
0.324,0.48,-0.67,-0.20,0.16,-0.25,0.09
0.324,0.48,-0.67,-0.20,0.16,-0.26,0.08
0.326,0.48,-0.67,-0.20,0.16,-0.27,0.07
0.328,0.50,-0.61,-0.20,0.16,-0.27,0.07
0.328,0.50,-0.61,-0.20,0.16,-0.28,0.07
0.33,0.50,-0.61,-0.20,0.16,-0.28,0.07
0.333,0.52,-0.55,-0.18,0.16,-0.28,0.07
0.334,0.52,-0.55,-0.18,0.17,-0.29,0.06
0.334,0.52,-0.55,-0.18,0.17,-0.29,0.06
0.336,0.51,-0.47,-0.13,0.17,-0.29,0.06
0.337,0.51,-0.47,-0.13,0.17,-0.29,0.06
0.338,0.51,-0.47,-0.13,0.17,-0.29,0.05
0.34,0.52,-0.41,-0.11,0.17,-0.29,0.05
0.34,0.52,-0.41,-0.11,0.17,-0.29,0.05
0.342,0.52,-0.41,-0.11,0.17,-0.28,0.05
0.344,0.50,-0.36,-0.08,0.17,-0.28,0.05
0.344,0.50,-0.36,-0.08,0.18,-0.28,0.04
0.346,0.50,-0.36,-0.08,0.18,-0.26,0.04
0.348,0.49,-0.30,-0.06,0.18,-0.26,0.04
0.348,0.49,-0.30,-0.06,0.18,-0.25,0.03
0.35,0.49,-0.30,-0.06,0.19,-0.24,0.03
0.352,0.45,-0.27,-0.02,0.19,-0.24,0.03
0.352,0.45,-0.27,-0.02,0.19,-0.23,0.03
0.354,0.45,-0.27,-0.02,0.19,-0.21,0.03
0.356,0.34,-0.23,0.01,0.19,-0.21,0.03
0.357,0.34,-0.23,0.01,0.20,-0.19,0.03
0.358,0.34,-0.23,0.01,0.21,-0.18,0.03
0.36,0.25,-0.26,0.05,0.21,-0.18,0.03
0.36,0.25,-0.26,0.05,0.21,-0.15,0.04
0.362,0.25,-0.26,0.05,0.22,-0.13,0.04
0.364,0.17,-0.32,0.08,0.22,-0.13,0.04
0.364,0.17,-0.32,0.08,0.22,-0.10,0.04
0.377,0.17,-0.32,0.08,0.23,-0.07,0.05
0.378,0.17,-0.32,0.08,0.24,-0.04,0.06
0.379,0.10,-0.40,0.15,0.24,-0.04,0.06
0.379,0.10,-0.40,0.15,0.25,-0.01,0.06
0.379,0.09,-0.50,0.18,0.25,-0.01,0.06
0.382,0.09,-0.50,0.18,0.26,0.02,0.07
0.382,0.09,-0.50,0.18,0.28,0.05,0.07
0.383,0.12,-0.58,0.23,0.28,0.05,0.07
0.383,0.12,-0.58,0.23,0.29,0.08,0.07
0.383,0.12,-0.58,0.23,0.31,0.11,0.07
0.384,0.21,-0.63,0.24,0.31,0.11,0.07
0.384,0.21,-0.63,0.24,0.32,0.13,0.06
0.384,0.21,-0.63,0.24,0.34,0.16,0.06
0.384,0.21,-0.63,0.24,0.35,0.19,0.05
0.385,0.33,-0.65,0.28,0.35,0.19,0.05
0.387,0.33,-0.65,0.28,0.37,0.21,0.04
0.388,0.47,-0.63,0.30,0.37,0.21,0.04
0.388,0.47,-0.63,0.30,0.39,0.24,0.03
0.39,0.47,-0.63,0.30,0.40,0.27,0.02
0.392,0.59,-0.59,0.31,0.40,0.27,0.02
0.393,0.59,-0.59,0.31,0.42,0.29,0.00
0.394,0.59,-0.59,0.31,0.43,0.32,-0.01
0.396,0.59,-0.59,0.31,0.44,0.34,-0.03
0.396,0.68,-0.53,0.31,0.44,0.34,-0.03
0.398,0.68,-0.53,0.31,0.45,0.36,-0.04
0.403,0.68,-0.53,0.31,0.47,0.37,-0.06
0.404,0.75,-0.49,0.29,0.47,0.37,-0.06
0.405,0.75,-0.49,0.29,0.48,0.39,-0.07
0.405,0.81,-0.48,0.27,0.48,0.39,-0.07
0.405,0.81,-0.48,0.27,0.49,0.39,-0.10
0.406,0.81,-0.48,0.27,0.50,0.40,-0.11
0.408,0.88,-0.49,0.21,0.50,0.40,-0.11
0.408,0.88,-0.49,0.21,0.51,0.41,-0.13
0.41,0.88,-0.49,0.21,0.52,0.41,-0.14
0.412,0.94,-0.53,0.16,0.52,0.41,-0.14
0.412,0.94,-0.53,0.16,0.52,0.41,-0.15
0.414,0.94,-0.53,0.16,0.53,0.41,-0.17
0.416,0.93,-0.57,0.09,0.53,0.41,-0.17
0.417,0.93,-0.57,0.09,0.54,0.40,-0.18
0.417,0.93,-0.57,0.09,0.54,0.40,-0.19
0.42,0.88,-0.63,0.03,0.54,0.40,-0.19
0.42,0.88,-0.63,0.03,0.55,0.38,-0.20
0.422,0.88,-0.63,0.03,0.55,0.38,-0.21
0.424,0.74,-0.68,-0.01,0.55,0.38,-0.21
0.424,0.74,-0.68,-0.01,0.55,0.38,-0.22
0.425,0.74,-0.68,-0.01,0.55,0.37,-0.22
0.428,0.56,-0.75,-0.07,0.55,0.37,-0.22
0.428,0.56,-0.75,-0.07,0.55,0.36,-0.22
0.429,0.56,-0.75,-0.07,0.54,0.36,-0.22
0.432,0.39,-0.79,-0.12,0.54,0.36,-0.22
0.432,0.39,-0.79,-0.12,0.54,0.35,-0.22
0.434,0.39,-0.79,-0.12,0.53,0.33,-0.21
0.436,0.29,-0.83,-0.22,0.53,0.33,-0.21
0.436,0.29,-0.83,-0.22,0.53,0.32,-0.21
0.438,0.29,-0.83,-0.22,0.52,0.30,-0.21
0.44,0.31,-0.82,-0.34,0.52,0.30,-0.21
0.44,0.31,-0.82,-0.34,0.51,0.27,-0.20
0.441,0.31,-0.82,-0.34,0.51,0.24,-0.20
0.444,0.56,-0.87,-0.47,0.51,0.24,-0.20
0.444,0.56,-0.87,-0.47,0.50,0.21,-0.20
0.445,0.56,-0.87,-0.47,0.49,0.17,-0.19
0.448,1.10,-0.94,-0.64,0.49,0.17,-0.19
0.448,1.10,-0.94,-0.64,0.48,0.13,-0.19
0.456,1.10,-0.94,-0.64,0.46,0.10,-0.18
0.457,1.36,-0.99,-0.78,0.46,0.10,-0.18
0.457,1.36,-0.99,-0.78,0.44,0.07,-0.15
0.458,1.36,-0.99,-0.78,0.40,0.02,-0.05
0.458,0.82,-1.47,-1.13,0.40,0.02,-0.05
0.458,0.82,-1.47,-1.13,0.34,-0.02,0.07
0.459,0.82,-1.47,-1.13,0.29,-0.07,0.17
0.46,-0.57,-2.59,-2.04,0.29,-0.07,0.17
0.46,-0.57,-2.59,-2.04,0.24,-0.15,0.26
0.461,-0.57,-2.59,-2.04,0.20,-0.24,0.35
0.464,-0.47,-2.51,-2.32,0.20,-0.24,0.35
0.464,-0.47,-2.51,-2.32,0.17,-0.34,0.44
0.471,-0.47,-2.51,-2.32,0.13,-0.45,0.52
0.472,-0.62,-2.36,-2.53,0.13,-0.45,0.52
0.472,-0.62,-2.36,-2.53,0.10,-0.55,0.59
0.472,-0.62,-2.36,-2.53,0.07,-0.64,0.66
0.473,-0.58,-2.21,-2.62,0.07,-0.64,0.66
0.473,-0.58,-2.21,-2.62,0.04,-0.73,0.71
0.474,-0.58,-2.21,-2.62,0.01,-0.79,0.77
0.476,-0.50,-2.00,-2.56,0.01,-0.79,0.77
0.476,-0.50,-2.00,-2.56,-0.03,-0.84,0.82
0.477,-0.50,-2.00,-2.56,-0.06,-0.87,0.87
0.48,-0.50,-2.00,-2.56,-0.11,-0.89,0.92
0.48,-0.39,-1.81,-2.47,-0.11,-0.89,0.92
0.481,-0.39,-1.81,-2.47,-0.15,-0.89,0.96
0.484,-0.20,-1.69,-2.48,-0.15,-0.89,0.96
0.484,-0.20,-1.69,-2.48,-0.20,-0.89,1.00
0.485,-0.20,-1.69,-2.48,-0.25,-0.88,1.03
0.488,0.10,-1.70,-2.46,-0.25,-0.88,1.03
0.488,0.10,-1.70,-2.46,-0.29,-0.87,1.06
0.49,0.10,-1.70,-2.46,-0.35,-0.86,1.08
0.492,0.41,-1.64,-2.46,-0.35,-0.86,1.08
0.492,0.41,-1.64,-2.46,-0.39,-0.84,1.09
0.493,0.41,-1.64,-2.46,-0.44,-0.83,1.11
0.495,0.72,-1.58,-2.46,-0.44,-0.83,1.11
0.496,0.72,-1.58,-2.46,-0.49,-0.81,1.11
0.497,0.72,-1.58,-2.46,-0.54,-0.79,1.11
0.5,1.07,-1.51,-2.40,-0.54,-0.79,1.11
0.5,1.07,-1.51,-2.40,-0.58,-0.76,1.10
0.501,1.07,-1.51,-2.40,-0.63,-0.74,1.08
0.504,1.39,-1.46,-2.39,-0.63,-0.74,1.08
0.504,1.39,-1.46,-2.39,-0.67,-0.71,1.06
0.507,1.39,-1.46,-2.39,-0.72,-0.68,1.04
0.508,1.74,-1.46,-2.36,-0.72,-0.68,1.04
0.508,1.74,-1.46,-2.36,-0.77,-0.65,1.01
0.509,1.74,-1.46,-2.36,-0.82,-0.62,0.97
0.512,2.07,-1.46,-2.35,-0.82,-0.62,0.97
0.512,2.07,-1.46,-2.35,-0.87,-0.58,0.93
0.513,2.07,-1.46,-2.35,-0.92,-0.55,0.89
0.515,2.07,-1.46,-2.35,-0.97,-0.51,0.84
0.516,2.30,-1.44,-2.34,-0.97,-0.51,0.84
0.517,2.30,-1.44,-2.34,-1.02,-0.48,0.80
0.519,2.44,-1.40,-2.31,-1.02,-0.48,0.80
0.52,2.44,-1.40,-2.31,-1.07,-0.44,0.74
0.521,2.44,-1.40,-2.31,-1.12,-0.41,0.68
0.523,2.45,-1.32,-2.26,-1.12,-0.41,0.68
0.524,2.45,-1.32,-2.26,-1.16,-0.38,0.63
0.525,2.45,-1.32,-2.26,-1.21,-0.35,0.57
0.527,2.40,-1.27,-2.20,-1.21,-0.35,0.57
0.528,2.40,-1.27,-2.20,-1.25,-0.31,0.52
0.529,2.40,-1.27,-2.20,-1.29,-0.28,0.46
0.531,2.20,-1.26,-2.14,-1.29,-0.28,0.46
0.532,2.20,-1.26,-2.14,-1.33,-0.24,0.41
0.533,2.20,-1.26,-2.14,-1.37,-0.21,0.36
0.535,1.93,-1.34,-2.01,-1.37,-0.21,0.36
0.536,1.93,-1.34,-2.01,-1.40,-0.17,0.31
0.537,1.93,-1.34,-2.01,-1.43,-0.13,0.27
0.54,1.52,-1.56,-1.86,-1.43,-0.13,0.27
0.54,1.52,-1.56,-1.86,-1.46,-0.09,0.24
0.541,1.52,-1.56,-1.86,-1.48,-0.05,0.22
0.543,1.52,-1.56,-1.86,-1.51,0.00,0.20
0.544,1.08,-1.87,-1.78,-1.51,0.00,0.20
0.545,1.08,-1.87,-1.78,-1.53,0.06,0.19
0.547,1.08,-1.87,-1.78,-1.55,0.11,0.18
0.548,0.71,-2.21,-1.72,-1.55,0.11,0.18
0.556,0.71,-2.21,-1.72,-1.58,0.16,0.16
0.557,0.63,-2.58,-1.63,-1.58,0.16,0.16
0.558,0.63,-2.58,-1.63,-1.60,0.19,0.15
0.558,0.63,-2.58,-1.63,-1.61,0.20,0.10
0.558,1.60,-3.09,-1.54,-1.61,0.20,0.10
0.559,1.60,-3.09,-1.54,-1.62,0.21,0.04
0.559,1.60,-3.09,-1.54,-1.62,0.22,-0.02
0.559,5.60,-4.57,-1.02,-1.62,0.22,-0.02
0.56,5.60,-4.57,-1.02,-1.61,0.24,-0.08
0.561,5.60,-4.57,-1.02,-1.59,0.24,-0.14
0.563,4.94,-4.31,-0.55,-1.59,0.24,-0.14
0.564,4.94,-4.31,-0.55,-1.57,0.24,-0.19
0.565,4.94,-4.31,-0.55,-1.55,0.21,-0.24
0.571,4.51,-4.10,-0.51,-1.55,0.21,-0.24
0.572,4.51,-4.10,-0.51,-1.52,0.18,-0.29
0.573,4.51,-4.10,-0.51,-1.48,0.15,-0.34
0.573,4.51,-4.10,-0.51,-1.45,0.12,-0.38
0.573,4.12,-3.90,-0.39,-1.45,0.12,-0.38
0.574,4.12,-3.90,-0.39,-1.41,0.10,-0.42
0.576,3.62,-3.68,-0.21,-1.41,0.10,-0.42
0.576,3.62,-3.68,-0.21,-1.37,0.09,-0.45
0.577,3.62,-3.68,-0.21,-1.34,0.08,-0.47
0.579,3.03,-3.48,-0.04,-1.34,0.08,-0.47
0.58,3.03,-3.48,-0.04,-1.30,0.08,-0.49
0.581,3.03,-3.48,-0.04,-1.26,0.09,-0.50
0.583,2.43,-3.35,0.09,-1.26,0.09,-0.50
0.584,2.43,-3.35,0.09,-1.23,0.10,-0.50
0.585,2.43,-3.35,0.09,-1.19,0.11,-0.50
0.587,1.84,-3.22,0.16,-1.19,0.11,-0.50
0.588,1.84,-3.22,0.16,-1.16,0.13,-0.49
0.589,1.84,-3.22,0.16,-1.13,0.13,-0.48
0.591,1.27,-3.14,0.10,-1.13,0.13,-0.48
0.592,1.27,-3.14,0.10,-1.09,0.14,-0.46
0.593,1.27,-3.14,0.10,-1.06,0.14,-0.44
0.595,1.27,-3.14,0.10,-1.04,0.13,-0.42
0.595,0.79,-3.09,-0.04,-1.04,0.13,-0.42
0.597,0.79,-3.09,-0.04,-1.02,0.13,-0.40
0.6,0.39,-3.14,-0.25,-1.02,0.13,-0.40
0.6,0.39,-3.14,-0.25,-0.99,0.12,-0.37
0.601,0.39,-3.14,-0.25,-0.98,0.10,-0.35
0.603,0.05,-3.16,-0.46,-0.98,0.10,-0.35
0.604,0.05,-3.16,-0.46,-0.97,0.10,-0.32
0.605,0.05,-3.16,-0.46,-0.96,0.09,-0.29
0.607,-0.19,-3.14,-0.66,-0.96,0.09,-0.29
0.608,-0.19,-3.14,-0.66,-0.96,0.08,-0.27
0.609,-0.19,-3.14,-0.66,-0.97,0.08,-0.24
0.611,-0.25,-3.06,-0.80,-0.97,0.08,-0.24
0.612,-0.25,-3.06,-0.80,-0.98,0.07,-0.22
0.613,-0.25,-3.06,-0.80,-1.00,0.07,-0.20
0.615,-0.25,-3.06,-0.80,-1.03,0.07,-0.19
0.615,-0.17,-2.98,-0.92,-1.03,0.07,-0.19
0.617,-0.17,-2.98,-0.92,-1.05,0.07,-0.17
0.619,0.07,-2.83,-1.01,-1.05,0.07,-0.17
0.619,0.07,-2.83,-1.01,-1.07,0.08,-0.16
0.621,0.07,-2.83,-1.01,-1.11,0.08,-0.16
0.623,0.33,-2.66,-1.06,-1.11,0.08,-0.16
0.624,0.33,-2.66,-1.06,-1.13,0.09,-0.16
0.625,0.33,-2.66,-1.06,-1.16,0.08,-0.17
0.627,0.60,-2.45,-1.10,-1.16,0.08,-0.17
0.627,0.60,-2.45,-1.10,-1.20,0.08,-0.18
0.629,0.60,-2.45,-1.10,-1.22,0.07,-0.19
0.631,0.86,-2.28,-1.13,-1.22,0.07,-0.19
0.631,0.86,-2.28,-1.13,-1.25,0.05,-0.20
0.633,0.86,-2.28,-1.13,-1.28,0.03,-0.22
0.635,1.11,-2.27,-1.12,-1.28,0.03,-0.22
0.635,1.11,-2.27,-1.12,-1.31,0.01,-0.24
0.637,1.11,-2.27,-1.12,-1.34,-0.02,-0.26
0.64,1.42,-2.39,-1.11,-1.34,-0.02,-0.26
0.64,1.42,-2.39,-1.11,-1.36,-0.04,-0.28
0.641,1.42,-2.39,-1.11,-1.40,-0.05,-0.30
0.643,1.42,-2.39,-1.11,-1.43,-0.06,-0.32
0.643,1.73,-2.59,-1.06,-1.43,-0.06,-0.32
0.645,1.73,-2.59,-1.06,-1.46,-0.07,-0.35
0.647,2.01,-2.71,-0.96,-1.46,-0.07,-0.35
0.647,2.01,-2.71,-0.96,-1.48,-0.09,-0.37
0.65,2.01,-2.71,-0.96,-1.51,-0.11,-0.40
0.651,2.25,-2.70,-0.86,-1.51,-0.11,-0.40
0.651,2.25,-2.70,-0.86,-1.54,-0.14,-0.43
0.653,2.25,-2.70,-0.86,-1.55,-0.18,-0.45
0.655,2.39,-2.60,-0.74,-1.55,-0.18,-0.45
0.656,2.39,-2.60,-0.74,-1.58,-0.22,-0.48
0.657,2.39,-2.60,-0.74,-1.59,-0.26,-0.51
0.659,2.42,-2.54,-0.59,-1.59,-0.26,-0.51
0.659,2.42,-2.54,-0.59,-1.61,-0.30,-0.53
0.661,2.42,-2.54,-0.59,-1.62,-0.34,-0.55
0.663,2.26,-2.45,-0.40,-1.62,-0.34,-0.55
0.663,2.26,-2.45,-0.40,-1.62,-0.38,-0.57
0.665,2.26,-2.45,-0.40,-1.63,-0.42,-0.59
0.673,1.97,-2.39,-0.15,-1.63,-0.42,-0.59
0.674,1.97,-2.39,-0.15,-1.63,-0.46,-0.60
0.674,1.97,-2.39,-0.15,-1.63,-0.50,-0.61
0.675,1.59,-2.28,0.12,-1.63,-0.50,-0.61
0.675,1.59,-2.28,0.12,-1.63,-0.53,-0.61
0.675,1.59,-2.28,0.12,-1.62,-0.56,-0.62
0.676,1.10,-2.18,0.36,-1.62,-0.56,-0.62
0.676,1.10,-2.18,0.36,-1.61,-0.59,-0.61
0.677,1.10,-2.18,0.36,-1.60,-0.62,-0.60
0.679,0.60,-2.05,0.56,-1.60,-0.62,-0.60
0.679,0.60,-2.05,0.56,-1.58,-0.65,-0.59
0.681,0.60,-2.05,0.56,-1.57,-0.67,-0.57
0.689,0.14,-1.96,0.73,-1.57,-0.67,-0.57
0.69,0.14,-1.96,0.73,-1.55,-0.70,-0.55
0.691,0.14,-1.96,0.73,-1.54,-0.72,-0.53
0.691,-0.22,-1.88,0.86,-1.54,-0.72,-0.53
0.691,-0.22,-1.88,0.86,-1.51,-0.74,-0.50
0.692,-0.22,-1.88,0.86,-1.49,-0.76,-0.48
0.692,-0.52,-1.87,0.95,-1.49,-0.76,-0.48
0.692,-0.52,-1.87,0.95,-1.48,-0.77,-0.45
0.693,-0.52,-1.87,0.95,-1.45,-0.78,-0.43
0.695,-0.72,-1.80,1.00,-1.45,-0.78,-0.43
0.695,-0.72,-1.80,1.00,-1.43,-0.79,-0.40
0.697,-0.72,-1.80,1.00,-1.42,-0.80,-0.38
0.7,-0.80,-1.73,1.02,-1.42,-0.80,-0.38
0.7,-0.80,-1.73,1.02,-1.40,-0.80,-0.35
0.701,-0.80,-1.73,1.02,-1.39,-0.81,-0.34
0.703,-0.79,-1.63,1.02,-1.39,-0.81,-0.34
0.703,-0.79,-1.63,1.02,-1.38,-0.82,-0.32
0.705,-0.79,-1.63,1.02,-1.36,-0.83,-0.31
0.707,-0.65,-1.57,0.97,-1.36,-0.83,-0.31
0.707,-0.65,-1.57,0.97,-1.35,-0.85,-0.30
0.709,-0.65,-1.57,0.97,-1.35,-0.86,-0.30
0.711,-0.37,-1.56,0.96,-1.35,-0.86,-0.30
0.712,-0.37,-1.56,0.96,-1.34,-0.88,-0.30
0.713,-0.37,-1.56,0.96,-1.32,-0.90,-0.31
0.715,-0.06,-1.54,0.93,-1.32,-0.90,-0.31
0.715,-0.06,-1.54,0.93,-1.32,-0.92,-0.32
0.717,-0.06,-1.54,0.93,-1.31,-0.95,-0.33
0.719,0.33,-1.52,0.83,-1.31,-0.95,-0.33
0.719,0.33,-1.52,0.83,-1.30,-0.98,-0.34
0.721,0.33,-1.52,0.83,-1.29,-0.99,-0.36
0.723,0.86,-1.53,0.71,-1.29,-0.99,-0.36
0.723,0.86,-1.53,0.71,-1.28,-0.94,-0.36
0.725,0.86,-1.53,0.71,-1.28,-0.88,-0.35
0.727,1.01,-1.47,0.86,-1.28,-0.88,-0.35
0.727,1.01,-1.47,0.86,-1.29,-0.86,-0.34
0.728,1.01,-1.47,0.86,-1.31,-0.88,-0.36
0.731,1.25,-1.25,0.70,-1.31,-0.88,-0.36
0.731,1.25,-1.25,0.70,-1.33,-0.94,-0.39
0.733,1.25,-1.25,0.70,-1.35,-0.99,-0.44
0.735,1.51,-1.27,0.42,-1.35,-0.99,-0.44
0.735,1.51,-1.27,0.42,-1.37,-1.02,-0.48
0.737,1.51,-1.27,0.42,-1.38,-1.06,-0.53
0.739,1.65,-1.38,0.34,-1.38,-1.06,-0.53
0.739,1.65,-1.38,0.34,-1.40,-1.09,-0.58
0.74,1.65,-1.38,0.34,-1.41,-1.09,-0.62
0.743,1.53,-1.33,0.17,-1.41,-1.09,-0.62
0.743,1.53,-1.33,0.17,-1.43,-1.09,-0.66
0.744,1.53,-1.33,0.17,-1.44,-1.08,-0.69
0.747,1.04,-1.03,0.07,-1.44,-1.08,-0.69
0.747,1.04,-1.03,0.07,-1.45,-1.07,-0.71
0.749,1.04,-1.03,0.07,-1.47,-1.07,-0.73
0.751,0.47,-0.69,0.05,-1.47,-1.07,-0.73
0.751,0.47,-0.69,0.05,-1.49,-1.05,-0.74
0.752,0.47,-0.69,0.05,-1.50,-1.05,-0.75
0.755,-0.08,-0.49,0.14,-1.50,-1.05,-0.75
0.755,-0.08,-0.49,0.14,-1.52,-1.03,-0.76
0.756,-0.08,-0.49,0.14,-1.53,-1.02,-0.76
0.759,-0.60,-0.40,0.26,-1.53,-1.02,-0.76
0.759,-0.60,-0.40,0.26,-1.54,-1.02,-0.76
0.76,-0.60,-0.40,0.26,-1.55,-1.00,-0.76
0.763,-1.08,-0.35,0.41,-1.55,-1.00,-0.76
0.763,-1.08,-0.35,0.41,-1.56,-1.00,-0.75
0.764,-1.08,-0.35,0.41,-1.56,-0.99,-0.74
0.773,-1.55,-0.31,0.63,-1.56,-0.99,-0.74
0.774,-1.55,-0.31,0.63,-1.57,-0.98,-0.72
0.774,-1.55,-0.31,0.63,-1.57,-0.97,-0.71
0.775,-1.93,-0.27,0.89,-1.57,-0.97,-0.71
0.778,-1.93,-0.27,0.89,-1.57,-0.96,-0.69
0.778,-1.93,-0.27,0.89,-1.56,-0.95,-0.67
0.779,-2.22,-0.22,1.16,-1.56,-0.95,-0.67
0.779,-2.22,-0.22,1.16,-1.56,-0.93,-0.65
0.779,-2.22,-0.22,1.16,-1.56,-0.91,-0.63
0.78,-2.44,-0.14,1.47,-1.56,-0.91,-0.63
0.78,-2.44,-0.14,1.47,-1.55,-0.89,-0.60
0.78,-2.44,-0.14,1.47,-1.54,-0.87,-0.58
0.79,-2.60,-0.02,1.72,-1.54,-0.87,-0.58
0.79,-2.60,-0.02,1.72,-1.52,-0.86,-0.56
0.791,-2.60,-0.02,1.72,-1.50,-0.84,-0.54
0.791,-2.78,0.11,1.94,-1.50,-0.84,-0.54
0.791,-2.78,0.11,1.94,-1.49,-0.82,-0.51
0.791,-2.78,0.11,1.94,-1.47,-0.80,-0.49
0.791,-2.99,0.21,2.06,-1.47,-0.80,-0.49
0.792,-2.99,0.21,2.06,-1.45,-0.78,-0.46
0.792,-2.99,0.21,2.06,-1.43,-0.77,-0.44
0.795,-3.24,0.31,2.14,-1.43,-0.77,-0.44
0.795,-3.24,0.31,2.14,-1.41,-0.76,-0.41
0.796,-3.24,0.31,2.14,-1.38,-0.75,-0.38
0.798,-3.45,0.42,2.15,-1.38,-0.75,-0.38
0.799,-3.45,0.42,2.15,-1.35,-0.74,-0.35
0.8,-3.45,0.42,2.15,-1.33,-0.75,-0.32
0.802,-3.58,0.51,2.14,-1.33,-0.75,-0.32
0.803,-3.58,0.51,2.14,-1.30,-0.75,-0.29
0.804,-3.58,0.51,2.14,-1.28,-0.77,-0.26
0.807,-3.60,0.53,2.10,-1.28,-0.77,-0.26
0.807,-3.60,0.53,2.10,-1.25,-0.79,-0.23
0.808,-3.60,0.53,2.10,-1.23,-0.83,-0.20
0.81,-3.33,0.38,1.94,-1.23,-0.83,-0.20
0.811,-3.33,0.38,1.94,-1.20,-0.88,-0.16
0.812,-3.33,0.38,1.94,-1.18,-0.95,-0.13
0.814,-2.76,0.09,1.79,-1.18,-0.95,-0.13
0.815,-2.76,0.09,1.79,-1.17,-1.02,-0.10
0.816,-2.76,0.09,1.79,-1.16,-1.09,-0.06
0.818,-2.76,0.09,1.79,-1.16,-1.17,-0.02
0.819,-2.17,-0.18,1.54,-1.16,-1.17,-0.02
0.821,-2.17,-0.18,1.54,-1.16,-1.26,0.01
0.822,-1.61,-0.34,1.18,-1.16,-1.26,0.01
0.823,-1.61,-0.34,1.18,-1.17,-1.35,0.04
0.824,-1.61,-0.34,1.18,-1.18,-1.45,0.07
0.826,-1.12,-0.42,0.82,-1.18,-1.45,0.07
0.827,-1.12,-0.42,0.82,-1.19,-1.56,0.09
0.828,-1.12,-0.42,0.82,-1.21,-1.66,0.12
0.83,-0.86,-0.37,0.56,-1.21,-1.66,0.12
0.831,-0.86,-0.37,0.56,-1.23,-1.76,0.14
0.833,-0.86,-0.37,0.56,-1.26,-1.86,0.16
0.834,-0.87,-0.18,0.33,-1.26,-1.86,0.16
0.834,-0.87,-0.18,0.33,-1.28,-1.95,0.18
0.836,-0.87,-0.18,0.33,-1.31,-2.04,0.21
0.838,-1.10,0.05,0.15,-1.31,-2.04,0.21
0.839,-1.10,0.05,0.15,-1.34,-2.11,0.23
0.84,-1.10,0.05,0.15,-1.37,-2.17,0.26
0.842,-1.10,0.05,0.15,-1.41,-2.22,0.28
0.842,-1.48,0.30,0.06,-1.41,-2.22,0.28
0.844,-1.48,0.30,0.06,-1.44,-2.26,0.31
0.846,-1.94,0.54,0.08,-1.44,-2.26,0.31
0.847,-1.94,0.54,0.08,-1.47,-2.30,0.34
0.848,-1.94,0.54,0.08,-1.50,-2.32,0.36
0.85,-2.40,0.70,0.20,-1.50,-2.32,0.36
0.851,-2.40,0.70,0.20,-1.52,-2.33,0.39
0.852,-2.40,0.70,0.20,-1.55,-2.33,0.41
0.854,-2.79,0.78,0.39,-1.55,-2.33,0.41
0.855,-2.79,0.78,0.39,-1.57,-2.32,0.44
0.856,-2.79,0.78,0.39,-1.59,-2.30,0.46
0.858,-3.05,0.75,0.68,-1.59,-2.30,0.46
0.859,-3.05,0.75,0.68,-1.60,-2.27,0.48
0.86,-3.05,0.75,0.68,-1.61,-2.22,0.50
0.862,-3.05,0.75,0.68,-1.61,-2.18,0.52
0.862,-3.16,0.62,1.01,-1.61,-2.18,0.52
0.864,-3.16,0.62,1.01,-1.61,-2.12,0.53
0.873,-3.09,0.42,1.31,-1.61,-2.12,0.53
0.874,-3.09,0.42,1.31,-1.60,-2.06,0.54
0.874,-3.09,0.42,1.31,-1.59,-1.99,0.55
0.875,-2.87,0.21,1.52,-1.59,-1.99,0.55
0.875,-2.87,0.21,1.52,-1.57,-1.92,0.55
0.875,-2.87,0.21,1.52,-1.55,-1.85,0.55
0.876,-2.60,0.08,1.57,-1.55,-1.85,0.55
0.876,-2.60,0.08,1.57,-1.53,-1.77,0.55
0.876,-2.60,0.08,1.57,-1.52,-1.70,0.54
0.878,-2.60,0.08,1.57,-1.50,-1.63,0.52
0.879,-2.22,-0.02,1.46,-1.50,-1.63,0.52
0.88,-2.22,-0.02,1.46,-1.48,-1.55,0.50
0.888,-1.83,-0.11,1.33,-1.48,-1.55,0.50
0.889,-1.83,-0.11,1.33,-1.47,-1.48,0.47
0.889,-1.83,-0.11,1.33,-1.45,-1.39,0.45
0.889,-1.46,-0.18,1.25,-1.45,-1.39,0.45
0.889,-1.46,-0.18,1.25,-1.44,-1.30,0.41
0.889,-1.46,-0.18,1.25,-1.42,-1.21,0.38
0.891,-1.24,-0.20,1.13,-1.42,-1.21,0.38
0.891,-1.24,-0.20,1.13,-1.41,-1.11,0.34
0.892,-1.24,-0.20,1.13,-1.39,-1.01,0.30
0.894,-1.12,-0.15,0.91,-1.39,-1.01,0.30
0.895,-1.12,-0.15,0.91,-1.38,-0.92,0.26
0.896,-1.12,-0.15,0.91,-1.38,-0.83,0.22
0.898,-1.12,-0.15,0.91,-1.37,-0.74,0.18
0.898,-1.09,-0.01,0.59,-1.37,-0.74,0.18
0.9,-1.09,-0.01,0.59,-1.36,-0.65,0.15
0.902,-1.12,0.16,0.22,-1.36,-0.65,0.15
0.902,-1.12,0.16,0.22,-1.36,-0.57,0.11
0.905,-1.12,0.16,0.22,-1.36,-0.48,0.07
0.907,-1.23,0.29,-0.12,-1.36,-0.48,0.07
0.907,-1.23,0.29,-0.12,-1.37,-0.40,0.04
0.908,-1.23,0.29,-0.12,-1.38,-0.32,0.00
0.91,-1.37,0.39,-0.46,-1.38,-0.32,0.00
0.911,-1.37,0.39,-0.46,-1.39,-0.25,-0.03
0.912,-1.37,0.39,-0.46,-1.41,-0.17,-0.05
0.914,-1.51,0.41,-0.77,-1.41,-0.17,-0.05
0.914,-1.51,0.41,-0.77,-1.42,-0.10,-0.08
0.916,-1.51,0.41,-0.77,-1.44,-0.03,-0.11
0.918,-1.67,0.38,-1.05,-1.44,-0.03,-0.11
0.919,-1.67,0.38,-1.05,-1.46,0.03,-0.13
0.92,-1.67,0.38,-1.05,-1.48,0.09,-0.15
0.922,-1.85,0.29,-1.29,-1.48,0.09,-0.15
0.923,-1.85,0.29,-1.29,-1.50,0.16,-0.17
0.924,-1.85,0.29,-1.29,-1.52,0.22,-0.18
0.926,-1.85,0.29,-1.29,-1.54,0.29,-0.19
0.926,-2.06,0.17,-1.47,-1.54,0.29,-0.19
0.928,-2.06,0.17,-1.47,-1.56,0.35,-0.20
0.93,-2.34,0.02,-1.59,-1.56,0.35,-0.20
0.931,-2.34,0.02,-1.59,-1.58,0.41,-0.21
0.932,-2.34,0.02,-1.59,-1.61,0.46,-0.20
0.934,-2.65,-0.12,-1.72,-1.61,0.46,-0.20
0.935,-2.65,-0.12,-1.72,-1.63,0.52,-0.20
0.936,-2.65,-0.12,-1.72,-1.65,0.57,-0.20
0.938,-2.98,-0.26,-1.86,-1.65,0.57,-0.20
0.939,-2.98,-0.26,-1.86,-1.67,0.62,-0.18
0.94,-2.98,-0.26,-1.86,-1.70,0.68,-0.17
0.942,-3.32,-0.43,-2.03,-1.70,0.68,-0.17
0.943,-3.32,-0.43,-2.03,-1.72,0.73,-0.15
0.944,-3.32,-0.43,-2.03,-1.75,0.79,-0.13
0.946,-3.63,-0.59,-2.23,-1.75,0.79,-0.13
0.946,-3.63,-0.59,-2.23,-1.77,0.84,-0.11
0.948,-3.63,-0.59,-2.23,-1.80,0.89,-0.08
0.956,-3.88,-0.69,-2.49,-1.80,0.89,-0.08
0.957,-3.88,-0.69,-2.49,-1.82,0.93,-0.05
0.957,-3.88,-0.69,-2.49,-1.85,0.98,-0.02
0.958,-4.06,-0.76,-2.76,-1.85,0.98,-0.02
0.958,-4.06,-0.76,-2.76,-1.89,1.04,0.01
0.959,-4.06,-0.76,-2.76,-1.92,1.09,0.04
0.959,-4.22,-0.82,-3.03,-1.92,1.09,0.04
0.959,-4.22,-0.82,-3.03,-1.96,1.15,0.08
0.96,-4.22,-0.82,-3.03,-2.00,1.21,0.11
0.962,-4.40,-0.88,-3.27,-2.00,1.21,0.11
0.962,-4.40,-0.88,-3.27,-2.04,1.28,0.14
0.964,-4.40,-0.88,-3.27,-2.09,1.34,0.18
0.972,-4.55,-0.94,-3.53,-2.09,1.34,0.18
0.973,-4.55,-0.94,-3.53,-2.14,1.41,0.22
0.973,-4.55,-0.94,-3.53,-2.19,1.47,0.26
0.973,-4.55,-0.94,-3.53,-2.24,1.53,0.29
0.973,-4.66,-1.00,-3.77,-2.24,1.53,0.29
0.973,-4.66,-1.00,-3.77,-2.29,1.59,0.33
0.974,-4.80,-1.11,-3.95,-2.29,1.59,0.33
0.974,-4.80,-1.11,-3.95,-2.36,1.65,0.36
0.976,-4.80,-1.11,-3.95,-2.42,1.71,0.40
0.978,-4.94,-1.22,-4.03,-2.42,1.71,0.40
0.978,-4.94,-1.22,-4.03,-2.48,1.78,0.43
0.98,-4.94,-1.22,-4.03,-2.55,1.85,0.47
0.982,-5.06,-1.30,-3.99,-2.55,1.85,0.47
0.982,-5.06,-1.30,-3.99,-2.62,1.92,0.50
0.984,-5.06,-1.30,-3.99,-2.68,2.00,0.54
0.986,-5.11,-1.42,-3.88,-2.68,2.00,0.54
0.986,-5.11,-1.42,-3.88,-2.75,2.08,0.57
0.988,-5.11,-1.42,-3.88,-2.83,2.15,0.60
0.99,-4.95,-1.58,-3.73,-2.83,2.15,0.60
0.991,-4.95,-1.58,-3.73,-2.89,2.22,0.63
0.992,-4.95,-1.58,-3.73,-2.96,2.29,0.65
0.994,-4.55,-1.80,-3.54,-2.96,2.29,0.65
0.994,-4.55,-1.80,-3.54,-3.03,2.36,0.67
0.996,-4.55,-1.80,-3.54,-3.10,2.43,0.68
0.998,-3.99,-1.94,-3.30,-3.10,2.43,0.68
0.998,-3.99,-1.94,-3.30,-3.16,2.49,0.69
1.0,-3.99,-1.94,-3.30,-3.23,2.56,0.69
1.002,-3.39,-1.95,-3.02,-3.23,2.56,0.69
1.002,-3.39,-1.95,-3.02,-3.29,2.63,0.69
1.004,-3.39,-1.95,-3.02,-3.35,2.69,0.68
1.006,-2.78,-1.86,-2.66,-3.35,2.69,0.68
1.007,-2.78,-1.86,-2.66,-3.41,2.76,0.66
1.008,-2.78,-1.86,-2.66,-3.47,2.82,0.64
1.01,-2.14,-1.74,-2.21,-3.47,2.82,0.64
1.01,-2.14,-1.74,-2.21,-3.52,2.89,0.61
1.012,-2.14,-1.74,-2.21,-3.58,2.96,0.57
1.014,-2.14,-1.74,-2.21,-3.62,3.05,0.53
1.014,-1.54,-1.61,-1.71,-3.62,3.05,0.53
1.016,-1.54,-1.61,-1.71,-3.67,3.13,0.48
1.018,-1.54,-1.61,-1.71,-3.71,3.22,0.42
1.018,-1.02,-1.53,-1.16,-3.71,3.22,0.42
1.02,-1.02,-1.53,-1.16,-3.74,3.32,0.35
1.022,-0.64,-1.43,-0.64,-3.74,3.32,0.35
1.022,-0.64,-1.43,-0.64,-3.77,3.43,0.28
1.024,-0.64,-1.43,-0.64,-3.80,3.54,0.21
1.026,-0.43,-1.30,-0.23,-3.80,3.54,0.21
1.026,-0.43,-1.30,-0.23,-3.82,3.65,0.14
1.027,-0.43,-1.30,-0.23,-3.84,3.77,0.07
1.03,-0.44,-1.27,0.18,-3.84,3.77,0.07
1.03,-0.44,-1.27,0.18,-3.85,3.89,-0.01
1.032,-0.44,-1.27,0.18,-3.87,4.01,-0.08
1.034,-0.63,-1.32,0.51,-3.87,4.01,-0.08
1.034,-0.63,-1.32,0.51,-3.88,4.12,-0.15
1.035,-0.63,-1.32,0.51,-3.89,4.24,-0.22
1.038,-0.93,-1.45,0.77,-3.89,4.24,-0.22
1.038,-0.93,-1.45,0.77,-3.90,4.36,-0.29
1.04,-0.93,-1.45,0.77,-3.91,4.48,-0.35
1.042,-0.93,-1.45,0.77,-3.91,4.59,-0.41
1.042,-1.38,-1.61,1.00,-3.91,4.59,-0.41
1.043,-1.38,-1.61,1.00,-3.92,4.70,-0.46
1.045,-1.38,-1.61,1.00,-3.93,4.80,-0.52
1.046,-1.98,-1.67,1.22,-3.93,4.80,-0.52
1.047,-1.98,-1.67,1.22,-3.93,4.88,-0.56
1.056,-2.63,-1.62,1.52,-3.93,4.88,-0.56
1.057,-2.63,-1.62,1.52,-3.94,4.96,-0.60
1.057,-2.63,-1.62,1.52,-3.94,5.02,-0.63
1.057,-3.33,-1.46,1.92,-3.94,5.02,-0.63
1.058,-3.33,-1.46,1.92,-3.95,5.08,-0.65
1.058,-3.33,-1.46,1.92,-3.95,5.14,-0.66
1.058,-3.33,-1.46,1.92,-3.95,5.18,-0.67
1.059,-4.07,-1.20,2.35,-3.95,5.18,-0.67
1.06,-4.07,-1.20,2.35,-3.95,5.22,-0.67
1.062,-4.82,-0.92,2.77,-3.95,5.22,-0.67
1.062,-4.82,-0.92,2.77,-3.94,5.25,-0.66
1.063,-4.82,-0.92,2.77,-3.93,5.27,-0.64
1.072,-5.52,-0.62,3.20,-3.93,5.27,-0.64
1.073,-5.52,-0.62,3.20,-3.92,5.29,-0.61
1.073,-5.52,-0.62,3.20,-3.90,5.28,-0.58
1.073,-6.24,-0.34,3.65,-3.90,5.28,-0.58
1.074,-6.24,-0.34,3.65,-3.88,5.27,-0.53
1.074,-6.24,-0.34,3.65,-3.86,5.26,-0.49
1.074,-6.80,-0.12,4.16,-3.86,5.26,-0.49
1.075,-6.80,-0.12,4.16,-3.83,5.24,-0.43
1.075,-6.80,-0.12,4.16,-3.80,5.20,-0.36
1.078,-7.32,0.11,4.67,-3.80,5.20,-0.36
1.078,-7.32,0.11,4.67,-3.77,5.15,-0.29
1.079,-7.32,0.11,4.67,-3.73,5.09,-0.22
1.082,-7.56,0.32,5.16,-3.73,5.09,-0.22
1.082,-7.56,0.32,5.16,-3.69,5.02,-0.14
1.084,-7.56,0.32,5.16,-3.65,4.95,-0.05
1.085,-7.59,0.49,5.74,-3.65,4.95,-0.05
1.086,-7.59,0.49,5.74,-3.60,4.85,0.03
1.088,-7.59,0.49,5.74,-3.55,4.75,0.12
1.09,-7.47,0.61,6.34,-3.55,4.75,0.12
1.091,-7.47,0.61,6.34,-3.51,4.64,0.21
1.092,-7.47,0.61,6.34,-3.45,4.54,0.31
1.094,-7.19,0.69,6.98,-3.45,4.54,0.31
1.094,-7.19,0.69,6.98,-3.39,4.43,0.40
1.095,-7.19,0.69,6.98,-3.33,4.32,0.49
1.097,-7.19,0.69,6.98,-3.26,4.21,0.57
1.098,-6.81,0.73,7.58,-3.26,4.21,0.57
1.1,-6.81,0.73,7.58,-3.19,4.10,0.66
1.102,-6.42,0.80,8.09,-3.19,4.10,0.66
1.102,-6.42,0.80,8.09,-3.11,3.99,0.73
1.103,-6.42,0.80,8.09,-3.02,3.89,0.81
1.106,-6.02,0.88,8.51,-3.02,3.89,0.81
1.107,-6.02,0.88,8.51,-2.93,3.79,0.88
1.107,-6.02,0.88,8.51,-2.83,3.69,0.95
1.11,-5.64,0.98,8.78,-2.83,3.69,0.95
1.11,-5.64,0.98,8.78,-2.72,3.59,1.01
1.111,-5.64,0.98,8.78,-2.62,3.48,1.06
1.113,-5.21,1.04,8.98,-2.62,3.48,1.06
1.114,-5.21,1.04,8.98,-2.51,3.38,1.10
1.115,-5.21,1.04,8.98,-2.40,3.28,1.14
1.117,-4.71,1.02,9.20,-2.40,3.28,1.14
1.118,-4.71,1.02,9.20,-2.29,3.20,1.17
1.119,-4.71,1.02,9.20,-2.18,3.13,1.19
1.122,-4.23,0.99,9.41,-2.18,3.13,1.19
1.122,-4.23,0.99,9.41,-2.07,3.08,1.21
1.123,-4.23,0.99,9.41,-1.96,3.05,1.22
1.125,-4.23,0.99,9.41,-1.85,3.03,1.24
1.126,-3.87,1.06,9.46,-1.85,3.03,1.24
1.127,-3.87,1.06,9.46,-1.75,3.03,1.25
1.13,-3.55,1.18,9.37,-1.75,3.03,1.25
1.13,-3.55,1.18,9.37,-1.65,3.02,1.26
1.131,-3.55,1.18,9.37,-1.56,3.03,1.25
1.133,-3.28,1.36,9.14,-1.56,3.03,1.25
1.134,-3.28,1.36,9.14,-1.47,3.02,1.25
1.135,-3.28,1.36,9.14,-1.39,3.02,1.24
1.137,-3.04,1.59,8.75,-1.39,3.02,1.24
1.138,-3.04,1.59,8.75,-1.31,3.01,1.22
1.139,-3.04,1.59,8.75,-1.25,3.01,1.20
1.141,-3.04,1.59,8.75,-1.19,3.00,1.18
1.142,-2.81,1.84,8.24,-1.19,3.00,1.18
1.143,-2.81,1.84,8.24,-1.13,2.99,1.15
1.145,-2.81,1.84,8.24,-1.09,2.97,1.13
1.145,-2.62,2.15,7.76,-1.09,2.97,1.13
1.147,-2.62,2.15,7.76,-1.05,2.95,1.10
1.156,-2.49,2.54,7.41,-1.05,2.95,1.10
1.157,-2.49,2.54,7.41,-1.02,2.92,1.08
1.157,-2.49,2.54,7.41,-0.99,2.88,1.05
1.158,-2.42,2.96,7.21,-0.99,2.88,1.05
1.158,-2.42,2.96,7.21,-0.97,2.84,1.03
1.158,-2.42,2.96,7.21,-0.94,2.81,1.01
1.159,-2.42,2.96,7.21,-0.92,2.77,0.99
1.159,-2.45,3.32,7.17,-0.92,2.77,0.99
1.159,-2.45,3.32,7.17,-0.91,2.74,0.97
1.161,-2.49,3.59,7.24,-0.91,2.74,0.97
1.162,-2.49,3.59,7.24,-0.89,2.72,0.96
1.163,-2.49,3.59,7.24,-0.87,2.70,0.94
1.165,-2.48,3.62,7.38,-0.87,2.70,0.94
1.166,-2.48,3.62,7.38,-0.84,2.69,0.93
1.172,-2.48,3.62,7.38,-0.81,2.68,0.92
1.172,-2.45,3.52,7.55,-0.81,2.68,0.92
1.176,-2.45,3.52,7.55,-0.78,2.66,0.91
1.176,-2.45,3.52,7.55,-0.74,2.63,0.90
1.176,-2.34,3.42,7.73,-0.74,2.63,0.90
1.176,-2.34,3.42,7.73,-0.70,2.60,0.88
1.177,-2.34,3.42,7.73,-0.65,2.56,0.87
1.177,-2.34,3.42,7.73,-0.59,2.51,0.85
1.177,-2.21,3.38,7.92,-0.59,2.51,0.85
1.179,-2.21,3.38,7.92,-0.53,2.47,0.83
1.181,-2.03,3.30,8.09,-0.53,2.47,0.83
1.181,-2.03,3.30,8.09,-0.47,2.42,0.82
1.183,-2.03,3.30,8.09,-0.40,2.38,0.80
1.185,-1.83,3.20,8.21,-0.40,2.38,0.80
1.185,-1.83,3.20,8.21,-0.33,2.35,0.78
1.187,-1.83,3.20,8.21,-0.26,2.32,0.76
1.19,-1.60,3.05,8.29,-0.26,2.32,0.76
1.19,-1.60,3.05,8.29,-0.19,2.30,0.74
1.191,-1.60,3.05,8.29,-0.12,2.28,0.73
1.193,-1.60,3.05,8.29,-0.05,2.26,0.70
1.194,-1.39,2.88,8.28,-0.05,2.26,0.70
1.195,-1.39,2.88,8.28,0.02,2.25,0.69
1.197,-1.21,2.74,8.16,0.02,2.25,0.69
1.198,-1.21,2.74,8.16,0.09,2.23,0.66
1.2,-1.21,2.74,8.16,0.16,2.21,0.64
1.201,-1.09,2.66,7.93,0.16,2.21,0.64
1.201,-1.09,2.66,7.93,0.22,2.19,0.62
1.203,-1.09,2.66,7.93,0.28,2.17,0.59
1.205,-1.03,2.63,7.59,0.28,2.17,0.59
1.206,-1.03,2.63,7.59,0.33,2.15,0.57
1.207,-1.03,2.63,7.59,0.39,2.13,0.54
1.21,-1.00,2.59,7.18,0.39,2.13,0.54
1.21,-1.00,2.59,7.18,0.43,2.11,0.52
1.211,-1.00,2.59,7.18,0.48,2.10,0.50
1.213,-1.00,2.59,7.18,0.52,2.09,0.47
1.213,-1.01,2.58,6.73,0.52,2.09,0.47
1.215,-1.01,2.58,6.73,0.55,2.08,0.45
1.217,-1.07,2.53,6.23,0.55,2.08,0.45
1.218,-1.07,2.53,6.23,0.59,2.07,0.44
1.219,-1.07,2.53,6.23,0.61,2.08,0.42
1.221,-1.16,2.45,5.81,0.61,2.08,0.42
1.222,-1.16,2.45,5.81,0.63,2.08,0.40
1.223,-1.16,2.45,5.81,0.65,2.09,0.39
1.225,-1.31,2.35,5.41,0.65,2.09,0.39
1.225,-1.31,2.35,5.41,0.67,2.09,0.38
1.227,-1.31,2.35,5.41,0.68,2.09,0.36
1.229,-1.45,2.27,4.96,0.68,2.09,0.36
1.23,-1.45,2.27,4.96,0.69,2.09,0.35
1.231,-1.45,2.27,4.96,0.70,2.09,0.35
1.233,-1.54,2.14,4.56,0.70,2.09,0.35
1.234,-1.54,2.14,4.56,0.70,2.11,0.34
1.235,-1.54,2.14,4.56,0.69,2.13,0.33
1.237,-1.62,2.00,4.22,0.69,2.13,0.33
1.237,-1.62,2.00,4.22,0.69,2.15,0.32
1.239,-1.62,2.00,4.22,0.69,2.18,0.31
1.241,-1.64,1.89,3.94,0.69,2.18,0.31
1.241,-1.64,1.89,3.94,0.68,2.20,0.30
1.243,-1.64,1.89,3.94,0.68,2.22,0.29
1.245,-1.64,1.89,3.94,0.67,2.24,0.27
1.245,-1.63,1.83,3.67,0.67,2.24,0.27
1.247,-1.63,1.83,3.67,0.67,2.26,0.26
1.25,-1.52,1.77,3.35,0.67,2.26,0.26
1.25,-1.52,1.77,3.35,0.66,2.28,0.25
1.251,-1.52,1.77,3.35,0.66,2.30,0.24
1.253,-1.53,1.67,3.14,0.66,2.30,0.24
1.253,-1.53,1.67,3.14,0.65,2.32,0.23
1.255,-1.53,1.67,3.14,0.65,2.34,0.22
1.257,-1.40,1.55,2.83,0.65,2.34,0.22
1.258,-1.40,1.55,2.83,0.64,2.35,0.21
1.259,-1.40,1.55,2.83,0.63,2.38,0.19
1.261,-1.40,1.55,2.83,0.63,2.40,0.18
1.261,-1.17,1.45,2.59,0.63,2.40,0.18
1.263,-1.17,1.45,2.59,0.62,2.43,0.17
1.265,-1.17,1.45,2.59,0.61,2.46,0.16
1.265,-0.92,1.36,2.34,0.61,2.46,0.16
1.273,-0.92,1.36,2.34,0.61,2.49,0.15
1.275,-0.92,1.36,2.34,0.60,2.51,0.13
1.275,-0.75,1.30,2.17,0.60,2.51,0.13
1.275,-0.75,1.30,2.17,0.58,2.53,0.12
1.276,-0.53,1.30,1.87,0.58,2.53,0.12
1.276,-0.53,1.30,1.87,0.57,2.53,0.11
1.276,-0.53,1.30,1.87,0.55,2.54,0.08
1.277,0.00,1.28,1.20,0.55,2.54,0.08
1.278,0.00,1.28,1.20,0.54,2.57,0.07
1.279,0.00,1.28,1.20,0.53,2.59,0.06
1.281,-0.09,1.28,1.13,0.53,2.59,0.06
1.281,-0.09,1.28,1.13,0.51,2.61,0.05
1.289,-0.09,1.28,1.13,0.49,2.62,0.03
1.289,-0.20,1.21,1.01,0.49,2.62,0.03
1.29,-0.20,1.21,1.01,0.47,2.63,0.03
1.29,-0.20,1.21,1.01,0.45,2.65,0.02
1.29,-0.10,1.10,0.64,0.45,2.65,0.02
1.291,-0.10,1.10,0.64,0.43,2.66,0.01
1.291,-0.10,1.10,0.64,0.41,2.68,0.01
1.293,-0.11,1.04,0.38,0.41,2.68,0.01
1.293,-0.11,1.04,0.38,0.38,2.70,0.01
1.295,-0.11,1.04,0.38,0.35,2.72,0.00
1.297,-0.13,0.95,0.13,0.35,2.72,0.00
1.297,-0.13,0.95,0.13,0.32,2.73,0.00
1.299,-0.13,0.95,0.13,0.29,2.74,-0.00
1.301,-0.13,0.95,0.13,0.26,2.74,-0.01
1.301,-0.17,0.88,-0.09,0.26,2.74,-0.01
1.304,-0.17,0.88,-0.09,0.23,2.74,-0.03
1.305,-0.04,0.74,-0.31,0.23,2.74,-0.03
1.306,-0.04,0.74,-0.31,0.20,2.75,-0.04
1.307,-0.04,0.74,-0.31,0.18,2.76,-0.07
1.309,0.40,0.50,-0.26,0.18,2.76,-0.07
1.31,0.40,0.50,-0.26,0.16,2.77,-0.09
1.311,0.40,0.50,-0.26,0.13,2.79,-0.12
1.313,0.89,0.24,-0.22,0.13,2.79,-0.12
1.314,0.89,0.24,-0.22,0.11,2.81,-0.16
1.315,0.89,0.24,-0.22,0.09,2.85,-0.19
1.317,0.89,0.24,-0.22,0.08,2.89,-0.23
1.318,1.27,-0.06,-0.15,0.08,2.89,-0.23
1.319,1.27,-0.06,-0.15,0.06,2.93,-0.27
1.321,1.65,-0.39,-0.08,0.06,2.93,-0.27
1.321,1.65,-0.39,-0.08,0.05,2.98,-0.31
1.323,1.65,-0.39,-0.08,0.04,3.03,-0.36
1.325,1.93,-0.74,0.03,0.04,3.03,-0.36
1.325,1.93,-0.74,0.03,0.02,3.09,-0.41
1.327,1.93,-0.74,0.03,0.02,3.14,-0.46
1.329,2.19,-1.08,0.17,0.02,3.14,-0.46
1.329,2.19,-1.08,0.17,0.01,3.20,-0.51
1.331,2.19,-1.08,0.17,0.01,3.25,-0.56
1.333,2.19,-1.08,0.17,0.00,3.30,-0.62
1.334,2.36,-1.36,0.31,0.00,3.30,-0.62
1.335,2.36,-1.36,0.31,-0.00,3.35,-0.67
1.337,2.48,-1.52,0.39,-0.00,3.35,-0.67
1.337,2.48,-1.52,0.39,-0.01,3.39,-0.72
1.339,2.48,-1.52,0.39,-0.01,3.43,-0.77
1.341,2.39,-1.61,0.42,-0.01,3.43,-0.77
1.341,2.39,-1.61,0.42,-0.00,3.46,-0.82
1.342,2.39,-1.61,0.42,-0.00,3.48,-0.86
1.345,2.39,-1.61,0.42,-0.01,3.49,-0.90
1.345,2.20,-1.58,0.48,-0.01,3.49,-0.90
1.347,2.20,-1.58,0.48,-0.01,3.49,-0.94
1.349,2.13,-1.56,0.29,-0.01,3.49,-0.94
1.349,2.13,-1.56,0.29,-0.01,3.49,-0.97
1.351,2.13,-1.56,0.29,-0.02,3.48,-1.00
1.353,2.13,-1.56,0.29,-0.02,3.48,-1.02
1.353,2.07,-1.49,0.15,-0.02,3.48,-1.02
1.355,2.07,-1.49,0.15,-0.02,3.46,-1.03
1.357,1.60,-1.37,0.24,-0.02,3.46,-1.03
1.357,1.60,-1.37,0.24,-0.03,3.44,-1.05
1.359,1.60,-1.37,0.24,-0.04,3.41,-1.06
1.361,1.50,-1.25,0.07,-0.04,3.41,-1.06
1.361,1.50,-1.25,0.07,-0.05,3.38,-1.06
1.362,1.50,-1.25,0.07,-0.06,3.34,-1.06
1.364,1.50,-1.25,0.07,-0.07,3.31,-1.06
1.365,1.34,-1.08,0.06,-0.07,3.31,-1.06
1.373,1.34,-1.08,0.06,-0.08,3.27,-1.05
1.374,1.18,-0.87,0.07,-0.08,3.27,-1.05
1.375,1.18,-0.87,0.07,-0.09,3.23,-1.04
1.375,1.18,-0.87,0.07,-0.09,3.18,-1.03
1.375,0.94,-0.65,0.18,-0.09,3.18,-1.03
1.375,0.94,-0.65,0.18,-0.11,3.13,-1.02
1.376,0.94,-0.65,0.18,-0.11,3.08,-1.00
1.377,0.83,-0.47,0.31,-0.11,3.08,-1.00
1.377,0.83,-0.47,0.31,-0.12,3.02,-0.98
1.378,0.83,-0.47,0.31,-0.13,2.96,-0.96
1.381,0.70,-0.33,0.43,-0.13,2.96,-0.96
1.381,0.70,-0.33,0.43,-0.13,2.89,-0.94
1.389,0.70,-0.33,0.43,-0.14,2.81,-0.91
1.39,0.69,-0.19,0.58,-0.14,2.81,-0.91
1.391,0.69,-0.19,0.58,-0.14,2.72,-0.89
1.391,0.69,-0.19,0.58,-0.14,2.63,-0.85
1.391,0.70,0.01,0.82,-0.14,2.63,-0.85
1.391,0.70,0.01,0.82,-0.14,2.53,-0.82
1.392,0.70,0.01,0.82,-0.15,2.43,-0.78
1.393,0.70,0.01,0.82,-0.15,2.34,-0.73
1.393,0.51,0.30,1.11,-0.15,2.34,-0.73
1.395,0.51,0.30,1.11,-0.16,2.25,-0.69
1.397,0.29,0.63,1.36,-0.16,2.25,-0.69
1.397,0.29,0.63,1.36,-0.17,2.16,-0.64
1.398,0.29,0.63,1.36,-0.17,2.07,-0.59
1.401,0.22,0.88,1.46,-0.17,2.07,-0.59
1.401,0.22,0.88,1.46,-0.19,1.99,-0.54
1.402,0.22,0.88,1.46,-0.19,1.91,-0.51
1.405,0.27,1.06,1.55,-0.19,1.91,-0.51
1.405,0.27,1.06,1.55,-0.20,1.83,-0.47
1.407,0.27,1.06,1.55,-0.21,1.76,-0.44
1.409,0.48,1.12,1.53,-0.21,1.76,-0.44
1.409,0.48,1.12,1.53,-0.22,1.69,-0.41
1.41,0.48,1.12,1.53,-0.23,1.63,-0.39
1.412,0.86,1.19,1.46,-0.23,1.63,-0.39
1.413,0.86,1.19,1.46,-0.24,1.57,-0.36
1.414,0.86,1.19,1.46,-0.25,1.51,-0.35
1.417,0.97,1.26,1.31,-0.25,1.51,-0.35
1.417,0.97,1.26,1.31,-0.27,1.46,-0.33
1.419,0.97,1.26,1.31,-0.29,1.40,-0.31
1.421,0.91,1.37,1.21,-0.29,1.40,-0.31
1.421,0.91,1.37,1.21,-0.31,1.35,-0.30
1.422,0.91,1.37,1.21,-0.34,1.31,-0.28
1.425,0.97,1.44,1.07,-0.34,1.31,-0.28
1.425,0.97,1.44,1.07,-0.36,1.26,-0.27
1.427,0.97,1.44,1.07,-0.39,1.22,-0.27
1.429,1.07,1.46,0.88,-0.39,1.22,-0.27
1.429,1.07,1.46,0.88,-0.42,1.18,-0.26
1.43,1.07,1.46,0.88,-0.45,1.14,-0.26
1.433,1.26,1.48,0.69,-0.45,1.14,-0.26
1.434,1.26,1.48,0.69,-0.47,1.10,-0.27
1.434,1.26,1.48,0.69,-0.50,1.06,-0.28
1.437,1.45,1.46,0.48,-0.50,1.06,-0.28
1.438,1.45,1.46,0.48,-0.52,1.01,-0.29
1.438,1.45,1.46,0.48,-0.55,0.97,-0.31
1.441,1.75,1.41,0.23,-0.55,0.97,-0.31
1.441,1.75,1.41,0.23,-0.57,0.93,-0.33
1.442,1.75,1.41,0.23,-0.59,0.89,-0.35
1.444,1.95,1.40,0.08,-0.59,0.89,-0.35
1.444,1.95,1.40,0.08,-0.61,0.85,-0.38
1.446,1.95,1.40,0.08,-0.63,0.82,-0.40
1.448,2.10,1.46,0.07,-0.63,0.82,-0.40
1.449,2.10,1.46,0.07,-0.64,0.79,-0.43
1.45,2.10,1.46,0.07,-0.65,0.76,-0.46
1.452,2.24,1.53,0.10,-0.65,0.76,-0.46
1.453,2.24,1.53,0.10,-0.66,0.74,-0.49
1.454,2.24,1.53,0.10,-0.67,0.71,-0.52
1.457,2.34,1.63,0.10,-0.67,0.71,-0.52
1.457,2.34,1.63,0.10,-0.67,0.69,-0.54
1.458,2.34,1.63,0.10,-0.67,0.67,-0.57
1.46,2.34,1.63,0.10,-0.67,0.63,-0.59
1.461,2.34,1.80,0.20,-0.67,0.63,-0.59
1.462,2.34,1.80,0.20,-0.66,0.60,-0.61
1.464,2.30,1.95,0.29,-0.66,0.60,-0.61
1.465,2.30,1.95,0.29,-0.66,0.55,-0.64
1.473,2.30,1.95,0.29,-0.64,0.50,-0.65
1.474,2.08,2.15,0.22,-0.64,0.50,-0.65
1.474,2.08,2.15,0.22,-0.63,0.45,-0.67
1.475,2.08,2.15,0.22,-0.62,0.39,-0.68
1.475,1.95,2.30,0.27,-0.62,0.39,-0.68
1.475,1.95,2.30,0.27,-0.60,0.34,-0.69
1.476,1.95,2.30,0.27,-0.59,0.29,-0.69
1.476,1.75,2.37,0.23,-0.59,0.29,-0.69
1.477,1.75,2.37,0.23,-0.58,0.25,-0.70
1.478,1.75,2.37,0.23,-0.56,0.21,-0.71
1.48,1.75,2.37,0.23,-0.55,0.16,-0.71
1.481,1.58,2.28,0.23,-0.55,0.16,-0.71
1.482,1.58,2.28,0.23,-0.53,0.11,-0.72
1.489,1.58,2.28,0.23,-0.52,0.06,-0.72
1.49,1.56,2.21,0.05,-0.52,0.06,-0.72
1.49,1.56,2.21,0.05,-0.51,0.01,-0.74
1.49,1.64,2.21,-0.29,-0.51,0.01,-0.74
1.49,1.64,2.21,-0.29,-0.50,-0.04,-0.75
1.491,1.64,2.21,-0.29,-0.50,-0.09,-0.77
1.492,1.85,2.26,-0.64,-0.50,-0.09,-0.77
1.493,1.85,2.26,-0.64,-0.49,-0.14,-0.80
1.494,1.85,2.26,-0.64,-0.48,-0.19,-0.82
1.496,1.85,2.26,-0.64,-0.47,-0.24,-0.84
1.496,2.03,2.41,-0.94,-0.47,-0.24,-0.84
1.498,2.03,2.41,-0.94,-0.46,-0.28,-0.86
1.5,2.02,2.23,-1.05,-0.46,-0.28,-0.86
1.501,2.02,2.23,-1.05,-0.45,-0.31,-0.87
1.502,2.02,2.23,-1.05,-0.43,-0.34,-0.88
1.504,1.89,1.92,-0.92,-0.43,-0.34,-0.88
1.505,1.89,1.92,-0.92,-0.41,-0.38,-0.90
1.506,1.89,1.92,-0.92,-0.39,-0.42,-0.91
1.508,1.87,1.80,-0.79,-0.39,-0.42,-0.91
1.509,1.87,1.80,-0.79,-0.36,-0.47,-0.93
1.51,1.87,1.80,-0.79,-0.33,-0.53,-0.94
1.512,2.00,1.84,-0.83,-0.33,-0.53,-0.94
1.513,2.00,1.84,-0.83,-0.31,-0.59,-0.96
1.514,2.00,1.84,-0.83,-0.28,-0.66,-0.97
1.517,2.15,1.98,-0.96,-0.28,-0.66,-0.97
1.517,2.15,1.98,-0.96,-0.26,-0.73,-1.00
1.518,2.15,1.98,-0.96,-0.25,-0.80,-1.01
1.52,2.32,2.07,-1.25,-0.25,-0.80,-1.01
1.521,2.32,2.07,-1.25,-0.23,-0.86,-1.03
1.522,2.32,2.07,-1.25,-0.22,-0.92,-1.04
1.524,2.32,2.23,-1.46,-0.22,-0.92,-1.04
1.525,2.32,2.23,-1.46,-0.21,-0.96,-1.05
1.526,2.32,2.23,-1.46,-0.21,-0.99,-1.06
1.528,2.35,2.20,-1.42,-0.21,-0.99,-1.06
1.529,2.35,2.20,-1.42,-0.21,-1.01,-1.07
1.53,2.35,2.20,-1.42,-0.21,-1.01,-1.07
1.532,2.33,2.00,-1.31,-0.21,-1.01,-1.07
1.532,2.33,2.00,-1.31,-0.21,-0.98,-1.06
1.534,2.33,2.00,-1.31,-0.22,-0.95,-1.05
1.536,2.29,1.74,-0.93,-0.22,-0.95,-1.05
1.536,2.29,1.74,-0.93,-0.22,-0.88,-1.04
1.538,2.29,1.74,-0.93,-0.21,-0.81,-1.02
1.54,2.28,1.48,-0.39,-0.21,-0.81,-1.02
1.541,2.28,1.48,-0.39,-0.20,-0.74,-1.01
1.542,2.28,1.48,-0.39,-0.19,-0.68,-0.99
1.544,2.19,0.97,0.47,-0.19,-0.68,-0.99
1.544,2.19,0.97,0.47,-0.17,-0.62,-0.97
1.546,2.19,0.97,0.47,-0.15,-0.57,-0.94
1.548,1.96,0.05,0.54,-0.15,-0.57,-0.94
1.548,1.96,0.05,0.54,-0.14,-0.54,-0.92
1.55,1.96,0.05,0.54,-0.12,-0.52,-0.90
1.552,1.63,-0.70,0.22,-0.12,-0.52,-0.90
1.552,1.63,-0.70,0.22,-0.11,-0.52,-0.89
1.554,1.63,-0.70,0.22,-0.09,-0.53,-0.87
1.556,1.44,-1.49,-0.15,-0.09,-0.53,-0.87
1.557,1.44,-1.49,-0.15,-0.08,-0.55,-0.86
1.558,1.44,-1.49,-0.15,-0.06,-0.60,-0.86
1.56,1.31,-2.16,-0.58,-0.06,-0.60,-0.86
1.56,1.31,-2.16,-0.58,-0.03,-0.65,-0.85
1.562,1.31,-2.16,-0.58,-0.02,-0.71,-0.85
1.564,1.14,-2.79,-0.93,-0.02,-0.71,-0.85
1.564,1.14,-2.79,-0.93,0.01,-0.77,-0.84
1.573,1.14,-2.79,-0.93,0.02,-0.83,-0.83
1.574,1.14,-2.79,-0.93,0.04,-0.88,-0.82
1.577,0.77,-3.32,-1.29,0.04,-0.88,-0.82
1.577,0.77,-3.32,-1.29,0.06,-0.93,-0.81
1.578,0.36,-3.81,-1.49,0.06,-0.93,-0.81
1.578,0.36,-3.81,-1.49,0.08,-0.98,-0.79
1.578,0.36,-3.81,-1.49,0.09,-1.02,-0.77
1.579,-0.08,-4.41,-1.48,0.09,-1.02,-0.77
1.579,-0.08,-4.41,-1.48,0.11,-1.06,-0.75
1.579,-0.08,-4.41,-1.48,0.13,-1.10,-0.73
1.58,-0.51,-4.94,-1.42,0.13,-1.10,-0.73
1.58,-0.51,-4.94,-1.42,0.15,-1.14,-0.70
1.582,-0.51,-4.94,-1.42,0.17,-1.19,-0.67
1.589,-1.02,-5.33,-1.26,0.17,-1.19,-0.67
1.59,-1.02,-5.33,-1.26,0.19,-1.23,-0.63
1.59,-1.02,-5.33,-1.26,0.21,-1.28,-0.60
1.591,-1.37,-5.42,-1.02,0.21,-1.28,-0.60
1.591,-1.37,-5.42,-1.02,0.24,-1.33,-0.56
1.591,-1.37,-5.42,-1.02,0.26,-1.39,-0.52
1.592,-1.78,-5.40,-0.79,0.26,-1.39,-0.52
1.592,-1.78,-5.40,-0.79,0.29,-1.45,-0.47
1.594,-1.78,-5.40,-0.79,0.31,-1.51,-0.42
1.596,-2.21,-5.26,-0.53,0.31,-1.51,-0.42
1.596,-2.21,-5.26,-0.53,0.34,-1.58,-0.37
1.598,-2.21,-5.26,-0.53,0.36,-1.64,-0.32
1.6,-2.38,-5.06,-0.36,0.36,-1.64,-0.32
1.601,-2.38,-5.06,-0.36,0.39,-1.71,-0.26
1.602,-2.38,-5.06,-0.36,0.41,-1.78,-0.21
1.604,-2.41,-4.74,-0.20,0.41,-1.78,-0.21
1.604,-2.41,-4.74,-0.20,0.43,-1.85,-0.15
1.606,-2.41,-4.74,-0.20,0.45,-1.91,-0.11
1.608,-2.28,-4.41,0.05,0.45,-1.91,-0.11
1.608,-2.28,-4.41,0.05,0.46,-1.98,-0.05
1.61,-2.28,-4.41,0.05,0.48,-2.04,-0.00
1.612,-1.99,-4.14,0.26,0.48,-2.04,-0.00
1.612,-1.99,-4.14,0.26,0.50,-2.10,0.05
1.614,-1.99,-4.14,0.26,0.51,-2.15,0.09
1.617,-1.69,-3.85,0.54,0.51,-2.15,0.09
1.617,-1.69,-3.85,0.54,0.52,-2.19,0.14
1.618,-1.69,-3.85,0.54,0.54,-2.23,0.18
1.62,-1.34,-3.52,0.76,0.54,-2.23,0.18
1.62,-1.34,-3.52,0.76,0.54,-2.27,0.21
1.622,-1.34,-3.52,0.76,0.56,-2.31,0.24
1.624,-0.99,-3.18,0.93,0.56,-2.31,0.24
1.625,-0.99,-3.18,0.93,0.57,-2.34,0.27
1.626,-0.99,-3.18,0.93,0.58,-2.38,0.29
1.628,-0.59,-2.89,1.03,0.58,-2.38,0.29
1.628,-0.59,-2.89,1.03,0.60,-2.41,0.30
1.63,-0.59,-2.89,1.03,0.61,-2.44,0.30
1.632,-0.27,-2.59,1.18,0.61,-2.44,0.30
1.632,-0.27,-2.59,1.18,0.63,-2.46,0.31
1.634,-0.27,-2.59,1.18,0.65,-2.48,0.31
1.636,-0.05,-2.28,1.30,0.65,-2.48,0.31
1.636,-0.05,-2.28,1.30,0.67,-2.47,0.31
1.638,-0.05,-2.28,1.30,0.67,-2.43,0.31
1.64,-0.00,-2.10,1.47,0.67,-2.43,0.31
1.641,-0.00,-2.10,1.47,0.66,-2.36,0.32
1.642,-0.00,-2.10,1.47,0.65,-2.26,0.33
1.644,-0.13,-2.18,1.52,0.65,-2.26,0.33
1.644,-0.13,-2.18,1.52,0.63,-2.16,0.35
1.645,-0.13,-2.18,1.52,0.61,-2.05,0.36
1.648,-0.23,-2.31,1.38,0.61,-2.05,0.36
1.648,-0.23,-2.31,1.38,0.58,-1.95,0.38
1.657,-0.23,-2.31,1.38,0.56,-1.86,0.38
1.658,-0.23,-2.31,1.38,0.54,-1.79,0.38
1.658,-0.25,-2.30,1.06,0.54,-1.79,0.38
1.658,-0.25,-2.30,1.06,0.53,-1.73,0.38
1.659,-0.20,-2.21,0.79,0.53,-1.73,0.38
1.659,-0.20,-2.21,0.79,0.52,-1.67,0.38
1.659,-0.20,-2.21,0.79,0.52,-1.62,0.37
1.66,-0.20,-2.21,0.79,0.51,-1.57,0.36
1.66,-0.26,-2.11,0.59,0.51,-1.57,0.36
1.662,-0.26,-2.11,0.59,0.50,-1.52,0.35
1.664,-0.26,-2.11,0.59,0.50,-1.48,0.34
1.664,-0.36,-2.07,0.44,0.50,-1.48,0.34
1.665,-0.36,-2.07,0.44,0.49,-1.42,0.33
1.673,-0.48,-2.06,0.26,0.49,-1.42,0.33
1.674,-0.48,-2.06,0.26,0.47,-1.35,0.33
1.675,-0.48,-2.06,0.26,0.46,-1.29,0.32
1.675,-0.63,-2.11,0.04,0.46,-1.29,0.32
1.675,-0.63,-2.11,0.04,0.45,-1.21,0.32
1.676,-0.63,-2.11,0.04,0.43,-1.14,0.32
1.676,-0.70,-2.19,-0.22,0.43,-1.14,0.32
1.676,-0.70,-2.19,-0.22,0.41,-1.06,0.32
1.678,-0.70,-2.19,-0.22,0.40,-0.98,0.32
1.68,-0.75,-2.37,-0.46,0.40,-0.98,0.32
1.68,-0.75,-2.37,-0.46,0.39,-0.90,0.33
1.682,-0.75,-2.37,-0.46,0.38,-0.82,0.34
1.684,-0.83,-2.62,-0.68,0.38,-0.82,0.34
1.684,-0.83,-2.62,-0.68,0.38,-0.75,0.34
1.685,-0.83,-2.62,-0.68,0.37,-0.68,0.36
1.688,-0.90,-2.92,-0.81,0.37,-0.68,0.36
1.688,-0.90,-2.92,-0.81,0.38,-0.62,0.37
1.69,-0.90,-2.92,-0.81,0.39,-0.56,0.39
1.692,-0.92,-3.15,-0.78,0.39,-0.56,0.39
1.692,-0.92,-3.15,-0.78,0.41,-0.50,0.40
1.693,-0.92,-3.15,-0.78,0.43,-0.45,0.41
1.695,-0.92,-3.15,-0.78,0.45,-0.40,0.43
1.696,-0.86,-3.30,-0.70,0.45,-0.40,0.43
1.697,-0.86,-3.30,-0.70,0.49,-0.36,0.44
1.7,-0.74,-3.36,-0.58,0.49,-0.36,0.44
1.701,-0.74,-3.36,-0.58,0.52,-0.32,0.45
1.704,-0.74,-3.36,-0.58,0.56,-0.29,0.46
1.704,-0.45,-3.23,-0.46,0.56,-0.29,0.46
1.705,-0.45,-3.23,-0.46,0.60,-0.27,0.47
1.705,-0.45,-3.23,-0.46,0.64,-0.27,0.47
1.708,-0.09,-2.99,-0.42,0.64,-0.27,0.47
1.708,-0.09,-2.99,-0.42,0.68,-0.27,0.47
1.709,-0.09,-2.99,-0.42,0.73,-0.28,0.46
1.711,0.26,-2.68,-0.31,0.73,-0.28,0.46
1.712,0.26,-2.68,-0.31,0.78,-0.30,0.46
1.713,0.26,-2.68,-0.31,0.83,-0.33,0.44
1.715,0.61,-2.32,-0.17,0.83,-0.33,0.44
1.716,0.61,-2.32,-0.17,0.88,-0.36,0.42
1.717,0.61,-2.32,-0.17,0.94,-0.40,0.40
1.72,1.10,-1.84,-0.03,0.94,-0.40,0.40
1.72,1.10,-1.84,-0.03,0.99,-0.44,0.37
1.721,1.10,-1.84,-0.03,1.04,-0.48,0.34
1.724,1.57,-1.36,0.08,1.04,-0.48,0.34
1.724,1.57,-1.36,0.08,1.10,-0.53,0.30
1.725,1.57,-1.36,0.08,1.15,-0.57,0.25
1.728,1.93,-0.92,0.26,1.15,-0.57,0.25
1.728,1.93,-0.92,0.26,1.21,-0.62,0.21
1.729,1.93,-0.92,0.26,1.25,-0.67,0.17
1.731,2.26,-0.53,0.43,1.25,-0.67,0.17
1.732,2.26,-0.53,0.43,1.29,-0.69,0.14
1.733,2.26,-0.53,0.43,1.32,-0.70,0.12
1.736,2.33,-0.26,0.37,1.32,-0.70,0.12
1.736,2.33,-0.26,0.37,1.34,-0.70,0.11
1.737,2.33,-0.26,0.37,1.35,-0.69,0.10
1.74,2.33,-0.26,0.37,1.35,-0.68,0.11
1.74,2.11,-0.07,0.09,1.35,-0.68,0.11
1.741,2.11,-0.07,0.09,1.35,-0.67,0.12
1.744,1.77,-0.02,-0.08,1.35,-0.67,0.12
1.744,1.77,-0.02,-0.08,1.35,-0.67,0.13
1.745,1.77,-0.02,-0.08,1.35,-0.66,0.15
1.748,1.45,0.01,-0.32,1.35,-0.66,0.15
1.748,1.45,0.01,-0.32,1.34,-0.66,0.18
1.75,1.45,0.01,-0.32,1.33,-0.67,0.20
1.752,1.17,-0.02,-0.55,1.33,-0.67,0.20
1.752,1.17,-0.02,-0.55,1.33,-0.69,0.23
1.753,1.17,-0.02,-0.55,1.32,-0.71,0.25
1.756,0.89,-0.01,-0.77,1.32,-0.71,0.25
1.756,0.89,-0.01,-0.77,1.32,-0.75,0.28
1.757,0.89,-0.01,-0.77,1.31,-0.78,0.30
1.759,0.70,0.04,-1.05,1.31,-0.78,0.30
1.76,0.70,0.04,-1.05,1.31,-0.81,0.32
1.761,0.70,0.04,-1.05,1.31,-0.84,0.33
1.763,0.54,0.14,-1.19,1.31,-0.84,0.33
1.764,0.54,0.14,-1.19,1.31,-0.85,0.35
1.765,0.54,0.14,-1.19,1.30,-0.83,0.36
1.773,0.33,0.43,-1.36,1.30,-0.83,0.36
1.774,0.33,0.43,-1.36,1.29,-0.82,0.37
1.775,0.33,0.43,-1.36,1.27,-0.84,0.37
1.775,0.23,0.60,-1.74,1.27,-0.84,0.37
1.775,0.23,0.60,-1.74,1.25,-0.86,0.35
1.775,0.23,0.60,-1.74,1.23,-0.88,0.33
1.776,0.51,0.51,-1.67,1.23,-0.88,0.33
1.776,0.51,0.51,-1.67,1.21,-0.90,0.31
1.777,0.51,0.51,-1.67,1.19,-0.91,0.27
1.779,0.58,0.51,-1.57,1.19,-0.91,0.27
1.78,0.58,0.51,-1.57,1.17,-0.90,0.24
1.781,0.58,0.51,-1.57,1.16,-0.87,0.20
1.789,0.52,0.49,-1.27,1.16,-0.87,0.20
1.79,0.52,0.49,-1.27,1.14,-0.81,0.17
1.79,0.52,0.49,-1.27,1.12,-0.74,0.14
1.791,0.27,0.60,-1.08,1.12,-0.74,0.14
1.791,0.27,0.60,-1.08,1.11,-0.66,0.11
1.791,0.27,0.60,-1.08,1.08,-0.57,0.09
1.792,0.00,0.72,-1.18,1.08,-0.57,0.09
1.792,0.00,0.72,-1.18,1.05,-0.49,0.07
1.793,0.00,0.72,-1.18,1.02,-0.40,0.05
1.795,-0.24,0.87,-1.34,1.02,-0.40,0.05
1.796,-0.24,0.87,-1.34,0.98,-0.31,0.03
1.797,-0.24,0.87,-1.34,0.94,-0.23,0.02
1.8,-0.53,0.97,-1.37,0.94,-0.23,0.02
1.801,-0.53,0.97,-1.37,0.90,-0.14,0.00
1.801,-0.53,0.97,-1.37,0.86,-0.07,-0.00
1.803,-0.83,1.08,-1.38,0.86,-0.07,-0.00
1.804,-0.83,1.08,-1.38,0.81,-0.01,-0.01
1.805,-0.83,1.08,-1.38,0.77,0.05,-0.01
1.808,-1.03,1.16,-1.42,0.77,0.05,-0.01
1.808,-1.03,1.16,-1.42,0.72,0.10,-0.01
1.809,-1.03,1.16,-1.42,0.68,0.14,-0.02
1.811,-1.10,1.16,-1.42,0.68,0.14,-0.02
1.812,-1.10,1.16,-1.42,0.64,0.18,-0.02
1.813,-1.10,1.16,-1.42,0.60,0.21,-0.03
1.815,-1.04,1.19,-1.33,0.60,0.21,-0.03
1.816,-1.04,1.19,-1.33,0.56,0.24,-0.04
1.817,-1.04,1.19,-1.33,0.53,0.26,-0.04
1.819,-0.87,1.25,-1.17,0.53,0.26,-0.04
1.819,-0.87,1.25,-1.17,0.49,0.27,-0.06
1.821,-0.87,1.25,-1.17,0.47,0.28,-0.07
1.823,-0.58,1.32,-1.00,0.47,0.28,-0.07
1.824,-0.58,1.32,-1.00,0.44,0.29,-0.09
1.825,-0.58,1.32,-1.00,0.42,0.29,-0.11
1.827,-0.23,1.35,-0.75,0.42,0.29,-0.11
1.827,-0.23,1.35,-0.75,0.40,0.29,-0.14
1.829,-0.23,1.35,-0.75,0.38,0.29,-0.16
1.831,0.10,1.38,-0.58,0.38,0.29,-0.16
1.831,0.10,1.38,-0.58,0.36,0.28,-0.19
1.833,0.10,1.38,-0.58,0.34,0.29,-0.21
1.835,0.28,1.41,-0.48,0.34,0.29,-0.21
1.836,0.28,1.41,-0.48,0.32,0.28,-0.24
1.837,0.28,1.41,-0.48,0.31,0.28,-0.26
1.839,0.28,1.44,-0.42,0.31,0.28,-0.26
1.84,0.28,1.44,-0.42,0.29,0.27,-0.28
1.841,0.28,1.44,-0.42,0.28,0.26,-0.29
1.843,0.24,1.43,-0.33,0.28,0.26,-0.29
1.843,0.24,1.43,-0.33,0.27,0.25,-0.31
1.845,0.24,1.43,-0.33,0.25,0.24,-0.32
1.847,0.16,1.42,-0.23,0.25,0.24,-0.32
1.847,0.16,1.42,-0.23,0.25,0.22,-0.34
1.849,0.16,1.42,-0.23,0.24,0.20,-0.35
1.851,0.01,1.42,-0.14,0.24,0.20,-0.35
1.852,0.01,1.42,-0.14,0.23,0.19,-0.35
1.853,0.01,1.42,-0.14,0.22,0.17,-0.36
1.855,-0.21,1.40,-0.10,0.22,0.17,-0.36
1.856,-0.21,1.40,-0.10,0.22,0.15,-0.37
1.857,-0.21,1.40,-0.10,0.21,0.13,-0.37
1.859,-0.39,1.37,-0.06,0.21,0.13,-0.37
1.86,-0.39,1.37,-0.06,0.20,0.11,-0.38
1.861,-0.39,1.37,-0.06,0.19,0.09,-0.38
1.863,-0.54,1.29,-0.05,0.19,0.09,-0.38
1.863,-0.54,1.29,-0.05,0.18,0.08,-0.38
1.865,-0.54,1.29,-0.05,0.17,0.06,-0.38
1.874,-0.65,1.23,-0.05,0.17,0.06,-0.38
1.875,-0.65,1.23,-0.05,0.16,0.05,-0.39
1.875,-0.65,1.23,-0.05,0.15,0.04,-0.40
1.875,-0.72,1.11,-0.08,0.15,0.04,-0.40
1.876,-0.72,1.11,-0.08,0.14,0.03,-0.40
1.876,-0.72,1.11,-0.08,0.13,0.03,-0.41
1.876,-0.74,1.01,-0.09,0.13,0.03,-0.41
1.877,-0.74,1.01,-0.09,0.11,0.03,-0.41
1.877,-0.74,1.01,-0.09,0.10,0.03,-0.42
1.879,-0.77,0.83,-0.13,0.10,0.03,-0.42
1.879,-0.77,0.83,-0.13,0.08,0.04,-0.42
1.881,-0.77,0.83,-0.13,0.06,0.05,-0.42
1.89,-0.78,0.57,-0.22,0.06,0.05,-0.42
1.891,-0.78,0.57,-0.22,0.04,0.06,-0.43
1.891,-0.78,0.57,-0.22,0.03,0.07,-0.43
1.891,-0.72,0.35,-0.26,0.03,0.07,-0.43
1.892,-0.72,0.35,-0.26,0.01,0.09,-0.44
1.892,-0.72,0.35,-0.26,-0.01,0.11,-0.44
1.892,-0.56,0.19,-0.29,-0.01,0.11,-0.44
1.893,-0.56,0.19,-0.29,-0.03,0.12,-0.45
1.893,-0.56,0.19,-0.29,-0.05,0.14,-0.46
1.895,-0.38,0.10,-0.30,-0.05,0.14,-0.46
1.896,-0.38,0.10,-0.30,-0.07,0.16,-0.47
1.897,-0.38,0.10,-0.30,-0.09,0.19,-0.47
1.899,-0.24,-0.02,-0.28,-0.09,0.19,-0.47
1.899,-0.24,-0.02,-0.28,-0.12,0.23,-0.46
1.901,-0.24,-0.02,-0.28,-0.14,0.27,-0.46
1.903,-0.18,-0.17,-0.27,-0.14,0.27,-0.46
1.903,-0.18,-0.17,-0.27,-0.17,0.31,-0.46
1.905,-0.18,-0.17,-0.27,-0.19,0.35,-0.45
1.907,-0.07,-0.37,-0.32,-0.19,0.35,-0.45
1.908,-0.07,-0.37,-0.32,-0.22,0.38,-0.45
1.909,-0.07,-0.37,-0.32,-0.24,0.42,-0.45
1.911,0.14,-0.58,-0.42,-0.24,0.42,-0.45
1.911,0.14,-0.58,-0.42,-0.26,0.44,-0.45
1.913,0.14,-0.58,-0.42,-0.28,0.47,-0.46
1.915,0.38,-0.86,-0.54,-0.28,0.47,-0.46
1.915,0.38,-0.86,-0.54,-0.29,0.50,-0.47
1.917,0.38,-0.86,-0.54,-0.31,0.52,-0.49
1.919,0.66,-1.27,-0.68,-0.31,0.52,-0.49
1.919,0.66,-1.27,-0.68,-0.32,0.55,-0.51
1.921,0.66,-1.27,-0.68,-0.33,0.58,-0.53
1.923,0.91,-1.60,-0.82,-0.33,0.58,-0.53
1.923,0.91,-1.60,-0.82,-0.34,0.60,-0.56
1.925,0.91,-1.60,-0.82,-0.34,0.62,-0.59
1.927,1.03,-1.85,-0.89,-0.34,0.62,-0.59
1.927,1.03,-1.85,-0.89,-0.35,0.65,-0.62
1.929,1.03,-1.85,-0.89,-0.35,0.67,-0.64
1.931,1.04,-2.01,-0.91,-0.35,0.67,-0.64
1.931,1.04,-2.01,-0.91,-0.35,0.70,-0.68
1.933,1.04,-2.01,-0.91,-0.35,0.73,-0.70
1.935,0.98,-2.10,-0.90,-0.35,0.73,-0.70
1.935,0.98,-2.10,-0.90,-0.36,0.76,-0.73
1.937,0.98,-2.10,-0.90,-0.36,0.79,-0.75
1.939,0.79,-2.12,-0.89,-0.36,0.79,-0.75
1.939,0.79,-2.12,-0.89,-0.37,0.82,-0.78
1.941,0.79,-2.12,-0.89,-0.37,0.85,-0.80
1.943,0.62,-1.96,-0.87,-0.37,0.85,-0.80
1.943,0.62,-1.96,-0.87,-0.37,0.87,-0.82
1.945,0.62,-1.96,-0.87,-0.38,0.90,-0.83
1.947,0.45,-1.74,-0.83,-0.38,0.90,-0.83
1.947,0.45,-1.74,-0.83,-0.38,0.93,-0.85
1.949,0.45,-1.74,-0.83,-0.38,0.95,-0.86
1.951,0.27,-1.44,-0.69,-0.38,0.95,-0.86
1.951,0.27,-1.44,-0.69,-0.38,0.97,-0.87
1.953,0.27,-1.44,-0.69,-0.39,0.98,-0.88
1.955,0.14,-1.09,-0.52,-0.39,0.98,-0.88
1.955,0.14,-1.09,-0.52,-0.38,0.99,-0.88
1.957,0.14,-1.09,-0.52,-0.38,0.99,-0.89
1.959,0.07,-0.67,-0.28,-0.38,0.99,-0.89
1.959,0.07,-0.67,-0.28,-0.38,0.99,-0.89
1.96,0.07,-0.67,-0.28,-0.37,0.98,-0.89
1.963,0.07,-0.67,-0.28,-0.36,0.96,-0.89
1.963,-0.01,-0.19,0.05,-0.36,0.96,-0.89
1.964,-0.01,-0.19,0.05,-0.36,0.94,-0.88
1.974,-0.18,0.30,0.35,-0.36,0.94,-0.88
1.977,-0.18,0.30,0.35,-0.35,0.92,-0.88
1.977,-0.18,0.30,0.35,-0.34,0.89,-0.87
1.978,-0.30,0.78,0.61,-0.34,0.89,-0.87
1.978,-0.30,0.78,0.61,-0.33,0.86,-0.85
1.979,-0.30,0.78,0.61,-0.32,0.83,-0.84
1.979,-0.30,0.78,0.61,-0.31,0.79,-0.82
1.979,-0.45,1.20,0.81,-0.31,0.79,-0.82
1.98,-0.45,1.20,0.81,-0.30,0.76,-0.80
1.98,-0.53,1.55,0.93,-0.30,0.76,-0.80
1.98,-0.53,1.55,0.93,-0.30,0.73,-0.77
1.981,-0.53,1.55,0.93,-0.28,0.69,-0.74
1.99,-0.62,1.82,1.04,-0.28,0.69,-0.74
1.991,-0.62,1.82,1.04,-0.28,0.65,-0.72
1.991,-0.62,1.82,1.04,-0.27,0.62,-0.69
1.991,-0.66,2.03,1.08,-0.27,0.62,-0.69
1.992,-0.66,2.03,1.08,-0.26,0.58,-0.66
1.992,-0.66,2.03,1.08,-0.26,0.54,-0.63
1.992,-0.68,2.15,1.08,-0.26,0.54,-0.63
1.993,-0.68,2.15,1.08,-0.25,0.51,-0.60
1.993,-0.68,2.15,1.08,-0.24,0.47,-0.57
1.995,-0.67,2.19,1.05,-0.24,0.47,-0.57
1.995,-0.67,2.19,1.05,-0.24,0.43,-0.55
1.996,-0.67,2.19,1.05,-0.23,0.40,-0.52
1.999,-0.68,2.10,0.96,-0.23,0.40,-0.52
1.999,-0.68,2.10,0.96,-0.22,0.36,-0.49
2.0,-0.68,2.10,0.96,-0.21,0.32,-0.47
2.003,-0.66,1.98,0.87,-0.21,0.32,-0.47
2.003,-0.66,1.98,0.87,-0.21,0.29,-0.44
2.005,-0.66,1.98,0.87,-0.20,0.25,-0.42
2.007,-0.67,1.75,0.75,-0.20,0.25,-0.42
2.007,-0.67,1.75,0.75,-0.20,0.22,-0.39
2.008,-0.67,1.75,0.75,-0.19,0.18,-0.37
2.01,-0.64,1.44,0.61,-0.19,0.18,-0.37
2.011,-0.64,1.44,0.61,-0.19,0.16,-0.35
2.012,-0.64,1.44,0.61,-0.18,0.14,-0.33
2.014,-0.58,1.16,0.47,-0.18,0.14,-0.33
2.015,-0.58,1.16,0.47,-0.18,0.13,-0.31
2.017,-0.58,1.16,0.47,-0.17,0.12,-0.29
2.018,-0.51,0.96,0.35,-0.17,0.12,-0.29
2.019,-0.51,0.96,0.35,-0.17,0.11,-0.28
2.02,-0.51,0.96,0.35,-0.16,0.10,-0.26
2.023,-0.44,0.79,0.20,-0.16,0.10,-0.26
2.023,-0.44,0.79,0.20,-0.16,0.10,-0.25
2.024,-0.44,0.79,0.20,-0.16,0.09,-0.24
2.026,-0.44,0.65,0.05,-0.16,0.09,-0.24
2.027,-0.44,0.65,0.05,-0.16,0.08,-0.23
2.028,-0.44,0.65,0.05,-0.15,0.08,-0.23
2.03,-0.46,0.58,-0.08,-0.15,0.08,-0.23
2.031,-0.46,0.58,-0.08,-0.15,0.07,-0.22
2.032,-0.46,0.58,-0.08,-0.14,0.07,-0.22
2.034,-0.46,0.51,-0.17,-0.14,0.07,-0.22
2.035,-0.46,0.51,-0.17,-0.14,0.07,-0.21
2.036,-0.46,0.51,-0.17,-0.14,0.08,-0.21
2.039,-0.47,0.46,-0.24,-0.14,0.08,-0.21
2.039,-0.47,0.46,-0.24,-0.14,0.10,-0.20
2.04,-0.47,0.46,-0.24,-0.14,0.13,-0.19
2.042,-0.47,0.46,-0.24,-0.14,0.16,-0.18
2.043,-0.46,0.41,-0.30,-0.14,0.16,-0.18
2.044,-0.46,0.41,-0.30,-0.15,0.19,-0.17
2.047,-0.43,0.37,-0.33,-0.15,0.19,-0.17
2.047,-0.43,0.37,-0.33,-0.16,0.23,-0.16
2.048,-0.43,0.37,-0.33,-0.17,0.26,-0.15
2.057,-0.29,0.43,-0.38,-0.17,0.26,-0.15
2.058,-0.29,0.43,-0.38,-0.17,0.29,-0.15
2.058,-0.29,0.43,-0.38,-0.18,0.31,-0.15
2.058,-0.02,0.55,-0.42,-0.18,0.31,-0.15
2.059,-0.02,0.55,-0.42,-0.18,0.33,-0.15
2.059,-0.02,0.55,-0.42,-0.19,0.34,-0.16
2.059,-0.02,0.55,-0.42,-0.19,0.35,-0.17
2.06,0.31,0.70,-0.45,-0.19,0.35,-0.17
2.06,0.31,0.70,-0.45,-0.19,0.36,-0.19
2.063,0.64,0.90,-0.42,-0.19,0.36,-0.19
2.063,0.64,0.90,-0.42,-0.19,0.36,-0.21
2.064,0.64,0.90,-0.42,-0.19,0.37,-0.23
2.073,0.87,1.12,-0.39,-0.19,0.37,-0.23
2.074,0.87,1.12,-0.39,-0.19,0.38,-0.26
2.074,0.87,1.12,-0.39,-0.20,0.39,-0.28
2.075,0.87,1.12,-0.39,-0.20,0.40,-0.30
2.075,0.99,1.31,-0.32,-0.20,0.40,-0.30
2.075,0.99,1.31,-0.32,-0.20,0.41,-0.32
2.075,1.01,1.50,-0.25,-0.20,0.41,-0.32
2.076,1.01,1.50,-0.25,-0.21,0.42,-0.34
2.076,1.01,1.50,-0.25,-0.21,0.42,-0.36
2.078,0.96,1.68,-0.18,-0.21,0.42,-0.36
2.079,0.96,1.68,-0.18,-0.21,0.43,-0.38
2.08,0.96,1.68,-0.18,-0.22,0.44,-0.39
2.082,0.96,1.68,-0.18,-0.22,0.44,-0.41
2.083,0.87,1.83,-0.12,-0.22,0.44,-0.41
2.084,0.87,1.83,-0.12,-0.22,0.44,-0.42
2.087,0.74,1.94,-0.05,-0.22,0.44,-0.42
2.087,0.74,1.94,-0.05,-0.22,0.44,-0.43
2.088,0.74,1.94,-0.05,-0.23,0.43,-0.44
2.091,0.60,2.00,0.04,-0.23,0.43,-0.44
2.091,0.60,2.00,0.04,-0.23,0.41,-0.45
2.092,0.60,2.00,0.04,-0.23,0.39,-0.46
2.094,0.45,1.98,0.12,-0.23,0.39,-0.46
2.095,0.45,1.98,0.12,-0.23,0.37,-0.46
2.096,0.45,1.98,0.12,-0.23,0.34,-0.47
2.098,0.45,1.98,0.12,-0.23,0.30,-0.47
2.099,0.28,1.89,0.20,-0.23,0.30,-0.47
2.101,0.28,1.89,0.20,-0.23,0.27,-0.47
2.103,0.13,1.71,0.29,-0.23,0.27,-0.47
2.103,0.13,1.71,0.29,-0.23,0.23,-0.46
2.104,0.13,1.71,0.29,-0.23,0.19,-0.45
2.107,-0.03,1.44,0.38,-0.23,0.19,-0.45
2.107,-0.03,1.44,0.38,-0.22,0.15,-0.45
2.108,-0.03,1.44,0.38,-0.22,0.10,-0.43
2.11,-0.03,1.44,0.38,-0.21,0.04,-0.42
2.11,-0.16,1.20,0.46,-0.21,0.04,-0.42
2.112,-0.16,1.20,0.46,-0.20,-0.02,-0.41
2.114,-0.27,1.01,0.50,-0.20,-0.02,-0.41
2.114,-0.27,1.01,0.50,-0.19,-0.08,-0.39
2.117,-0.27,1.01,0.50,-0.18,-0.14,-0.38
2.118,-0.39,0.81,0.54,-0.18,-0.14,-0.38
2.119,-0.39,0.81,0.54,-0.17,-0.21,-0.36
2.12,-0.39,0.81,0.54,-0.16,-0.28,-0.34
2.122,-0.49,0.62,0.61,-0.16,-0.28,-0.34
2.123,-0.49,0.62,0.61,-0.14,-0.35,-0.33
2.124,-0.49,0.62,0.61,-0.13,-0.41,-0.31
2.126,-0.54,0.49,0.68,-0.13,-0.41,-0.31
2.127,-0.54,0.49,0.68,-0.11,-0.48,-0.29
2.128,-0.54,0.49,0.68,-0.10,-0.54,-0.27
2.13,-0.64,0.35,0.77,-0.10,-0.54,-0.27
2.13,-0.64,0.35,0.77,-0.08,-0.60,-0.26
2.132,-0.64,0.35,0.77,-0.06,-0.65,-0.24
2.134,-0.75,0.21,0.81,-0.06,-0.65,-0.24
2.135,-0.75,0.21,0.81,-0.05,-0.70,-0.22
2.136,-0.75,0.21,0.81,-0.04,-0.75,-0.20
2.138,-0.91,0.08,0.79,-0.04,-0.75,-0.20
2.139,-0.91,0.08,0.79,-0.03,-0.79,-0.19
2.14,-0.91,0.08,0.79,-0.01,-0.83,-0.17
2.142,-1.01,-0.03,0.73,-0.01,-0.83,-0.17
2.142,-1.01,-0.03,0.73,-0.00,-0.87,-0.15
2.144,-1.01,-0.03,0.73,0.01,-0.90,-0.14
2.146,-1.11,-0.15,0.60,0.01,-0.90,-0.14
2.147,-1.11,-0.15,0.60,0.01,-0.93,-0.13
2.148,-1.11,-0.15,0.60,0.02,-0.95,-0.12
2.157,-1.17,-0.28,0.47,0.02,-0.95,-0.12
2.158,-1.17,-0.28,0.47,0.02,-0.96,-0.11
2.158,-1.17,-0.28,0.47,0.02,-0.97,-0.10
2.158,-1.16,-0.40,0.36,0.02,-0.97,-0.10
2.159,-1.16,-0.40,0.36,0.02,-0.97,-0.10
2.159,-1.16,-0.40,0.36,0.02,-0.97,-0.10
2.159,-1.11,-0.50,0.20,0.02,-0.97,-0.10
2.16,-1.11,-0.50,0.20,0.02,-0.96,-0.10
2.16,-1.11,-0.50,0.20,0.02,-0.95,-0.10
2.162,-1.05,-0.56,0.08,0.02,-0.95,-0.10
2.163,-1.05,-0.56,0.08,0.01,-0.94,-0.11
2.164,-1.05,-0.56,0.08,0.00,-0.91,-0.11
2.173,-0.98,-0.62,-0.09,0.00,-0.91,-0.11
2.174,-0.98,-0.62,-0.09,-0.01,-0.89,-0.12
2.174,-0.98,-0.62,-0.09,-0.02,-0.86,-0.13
2.175,-0.94,-0.66,-0.20,-0.02,-0.86,-0.13
2.175,-0.94,-0.66,-0.20,-0.02,-0.83,-0.14
2.175,-0.94,-0.66,-0.20,-0.03,-0.80,-0.15
2.176,-0.93,-0.67,-0.31,-0.03,-0.80,-0.15
2.176,-0.93,-0.67,-0.31,-0.04,-0.76,-0.16
2.176,-0.93,-0.67,-0.31,-0.06,-0.72,-0.17
2.178,-0.93,-0.72,-0.40,-0.06,-0.72,-0.17
2.179,-0.93,-0.72,-0.40,-0.07,-0.68,-0.18
2.18,-0.93,-0.72,-0.40,-0.08,-0.63,-0.18
2.182,-0.96,-0.80,-0.46,-0.08,-0.63,-0.18
2.182,-0.96,-0.80,-0.46,-0.10,-0.59,-0.19
2.184,-0.96,-0.80,-0.46,-0.11,-0.54,-0.19
2.186,-1.00,-0.85,-0.52,-0.11,-0.54,-0.19
2.187,-1.00,-0.85,-0.52,-0.12,-0.48,-0.19
2.188,-1.00,-0.85,-0.52,-0.13,-0.43,-0.19
2.19,-1.04,-0.94,-0.51,-0.13,-0.43,-0.19
2.191,-1.04,-0.94,-0.51,-0.15,-0.38,-0.19
2.192,-1.04,-0.94,-0.51,-0.16,-0.34,-0.19
2.194,-1.02,-1.03,-0.54,-0.16,-0.34,-0.19
2.195,-1.02,-1.03,-0.54,-0.17,-0.29,-0.19
2.196,-1.02,-1.03,-0.54,-0.18,-0.25,-0.19
2.198,-1.01,-1.10,-0.54,-0.18,-0.25,-0.19
2.198,-1.01,-1.10,-0.54,-0.19,-0.22,-0.18
2.2,-1.01,-1.10,-0.54,-0.20,-0.19,-0.18
2.202,-0.91,-1.12,-0.50,-0.20,-0.19,-0.18
2.202,-0.91,-1.12,-0.50,-0.20,-0.16,-0.18
2.204,-0.91,-1.12,-0.50,-0.21,-0.13,-0.18
2.207,-0.78,-1.13,-0.46,-0.21,-0.13,-0.18
2.207,-0.78,-1.13,-0.46,-0.21,-0.10,-0.18
2.208,-0.78,-1.13,-0.46,-0.21,-0.08,-0.17
2.21,-0.67,-1.10,-0.34,-0.21,-0.08,-0.17
2.21,-0.67,-1.10,-0.34,-0.21,-0.05,-0.17
2.212,-0.67,-1.10,-0.34,-0.21,-0.03,-0.16
2.214,-0.56,-1.05,-0.26,-0.21,-0.03,-0.16
2.214,-0.56,-1.05,-0.26,-0.21,-0.01,-0.15
2.217,-0.56,-1.05,-0.26,-0.21,0.00,-0.15
2.218,-0.45,-1.02,-0.16,-0.21,0.00,-0.15
2.218,-0.45,-1.02,-0.16,-0.20,0.02,-0.14
2.22,-0.45,-1.02,-0.16,-0.20,0.03,-0.13
2.222,-0.36,-1.02,-0.05,-0.20,0.03,-0.13
2.223,-0.36,-1.02,-0.05,-0.20,0.04,-0.12
2.224,-0.36,-1.02,-0.05,-0.19,0.05,-0.10
2.226,-0.30,-1.03,0.07,-0.19,0.05,-0.10
2.226,-0.30,-1.03,0.07,-0.19,0.05,-0.09
2.228,-0.30,-1.03,0.07,-0.19,0.04,-0.08
2.23,-0.21,-1.04,0.14,-0.19,0.04,-0.08
2.23,-0.21,-1.04,0.14,-0.19,0.03,-0.06
2.232,-0.21,-1.04,0.14,-0.19,0.02,-0.05
2.234,-0.12,-1.04,0.22,-0.19,0.02,-0.05
2.235,-0.12,-1.04,0.22,-0.18,-0.01,-0.04
2.236,-0.12,-1.04,0.22,-0.18,-0.03,-0.02
2.238,-0.01,-1.02,0.22,-0.18,-0.03,-0.02
2.238,-0.01,-1.02,0.22,-0.18,-0.05,-0.02
2.24,-0.01,-1.02,0.22,-0.17,-0.08,-0.01
2.242,-0.01,-1.02,0.22,-0.17,-0.10,0.00
2.242,0.17,-1.00,0.23,-0.17,-0.10,0.00
2.243,0.17,-1.00,0.23,-0.17,-0.13,0.00
2.246,0.38,-0.98,0.21,-0.17,-0.13,0.00
2.246,0.38,-0.98,0.21,-0.16,-0.15,0.01
2.248,0.38,-0.98,0.21,-0.17,-0.16,0.01
2.25,0.61,-0.93,0.22,-0.17,-0.16,0.01
2.251,0.61,-0.93,0.22,-0.16,-0.18,0.01
2.252,0.61,-0.93,0.22,-0.16,-0.19,0.01
2.254,0.81,-0.90,0.20,-0.16,-0.19,0.01
2.254,0.81,-0.90,0.20,-0.16,-0.20,0.00
2.256,0.81,-0.90,0.20,-0.16,-0.21,-0.00
2.258,0.96,-0.86,0.18,-0.16,-0.21,-0.00
2.258,0.96,-0.86,0.18,-0.16,-0.21,-0.01
2.26,0.96,-0.86,0.18,-0.16,-0.22,-0.03
2.262,1.04,-0.84,0.10,-0.16,-0.22,-0.03
2.262,1.04,-0.84,0.10,-0.17,-0.22,-0.04
2.264,1.04,-0.84,0.10,-0.17,-0.22,-0.05
2.266,1.10,-0.84,0.02,-0.17,-0.22,-0.05
2.266,1.10,-0.84,0.02,-0.17,-0.21,-0.07
2.274,1.10,-0.84,0.02,-0.17,-0.21,-0.09
2.275,1.09,-0.77,-0.06,-0.17,-0.21,-0.09
2.275,1.09,-0.77,-0.06,-0.17,-0.20,-0.10
2.275,1.09,-0.77,-0.06,-0.18,-0.19,-0.12
2.276,1.00,-0.68,-0.14,-0.18,-0.19,-0.12
2.276,1.00,-0.68,-0.14,-0.18,-0.18,-0.13
2.276,1.00,-0.68,-0.14,-0.18,-0.17,-0.15
2.278,0.88,-0.61,-0.26,-0.18,-0.17,-0.15
2.278,0.88,-0.61,-0.26,-0.19,-0.16,-0.17
2.28,0.88,-0.61,-0.26,-0.20,-0.15,-0.18
2.282,0.75,-0.54,-0.35,-0.20,-0.15,-0.18
2.282,0.75,-0.54,-0.35,-0.20,-0.13,-0.20
2.29,0.75,-0.54,-0.35,-0.21,-0.12,-0.21
2.291,0.60,-0.44,-0.39,-0.21,-0.12,-0.21
2.291,0.60,-0.44,-0.39,-0.22,-0.11,-0.22
2.292,0.60,-0.44,-0.39,-0.23,-0.10,-0.23
2.292,0.41,-0.29,-0.44,-0.23,-0.10,-0.23
2.292,0.41,-0.29,-0.44,-0.25,-0.09,-0.24
2.293,0.41,-0.29,-0.44,-0.26,-0.08,-0.25
2.294,0.23,-0.11,-0.43,-0.26,-0.08,-0.25
2.294,0.23,-0.11,-0.43,-0.27,-0.07,-0.25
2.296,0.23,-0.11,-0.43,-0.28,-0.06,-0.26
2.298,0.04,0.08,-0.38,-0.28,-0.06,-0.26
2.298,0.04,0.08,-0.38,-0.29,-0.06,-0.25
2.3,0.04,0.08,-0.38,-0.30,-0.06,-0.26
2.301,0.04,0.08,-0.38,-0.31,-0.06,-0.25
2.302,-0.11,0.28,-0.28,-0.31,-0.06,-0.25
2.304,-0.11,0.28,-0.28,-0.32,-0.06,-0.25
2.306,-0.29,0.58,-0.17,-0.32,-0.06,-0.25
2.307,-0.29,0.58,-0.17,-0.32,-0.07,-0.25
2.308,-0.29,0.58,-0.17,-0.33,-0.09,-0.25
2.31,-0.35,0.89,-0.04,-0.33,-0.09,-0.25
2.31,-0.35,0.89,-0.04,-0.33,-0.10,-0.25
2.311,-0.35,0.89,-0.04,-0.33,-0.11,-0.24
2.314,-0.41,1.15,0.10,-0.33,-0.11,-0.24
2.314,-0.41,1.15,0.10,-0.34,-0.13,-0.24
2.315,-0.41,1.15,0.10,-0.34,-0.14,-0.24
2.317,-0.43,1.37,0.18,-0.34,-0.14,-0.24
2.318,-0.43,1.37,0.18,-0.34,-0.16,-0.24
2.319,-0.43,1.37,0.18,-0.34,-0.17,-0.24
2.322,-0.43,1.55,0.24,-0.34,-0.17,-0.24
2.322,-0.43,1.55,0.24,-0.35,-0.18,-0.23
2.324,-0.43,1.55,0.24,-0.35,-0.19,-0.23
2.326,-0.38,1.72,0.27,-0.35,-0.19,-0.23
2.326,-0.38,1.72,0.27,-0.35,-0.20,-0.23
2.327,-0.38,1.72,0.27,-0.35,-0.21,-0.23
2.329,-0.38,1.88,0.23,-0.35,-0.21,-0.23
2.33,-0.38,1.88,0.23,-0.36,-0.21,-0.22
2.331,-0.38,1.88,0.23,-0.37,-0.21,-0.22
2.334,-0.32,2.03,0.17,-0.37,-0.21,-0.22
2.334,-0.32,2.03,0.17,-0.37,-0.20,-0.22
2.335,-0.32,2.03,0.17,-0.38,-0.20,-0.21
2.338,-0.29,2.24,0.04,-0.38,-0.20,-0.21
2.338,-0.29,2.24,0.04,-0.39,-0.21,-0.22
2.339,-0.29,2.24,0.04,-0.40,-0.20,-0.22
2.341,-0.22,2.46,-0.03,-0.40,-0.20,-0.22
2.342,-0.22,2.46,-0.03,-0.40,-0.21,-0.23
2.343,-0.22,2.46,-0.03,-0.42,-0.21,-0.24
2.345,-0.09,2.65,-0.09,-0.42,-0.21,-0.24
2.346,-0.09,2.65,-0.09,-0.43,-0.21,-0.25
2.347,-0.09,2.65,-0.09,-0.44,-0.18,-0.27
2.35,0.11,2.84,-0.23,-0.44,-0.18,-0.27
2.351,0.11,2.84,-0.23,-0.46,-0.11,-0.28
2.351,0.11,2.84,-0.23,-0.48,-0.05,-0.29
2.353,0.18,3.19,-0.69,-0.48,-0.05,-0.29
2.354,0.18,3.19,-0.69,-0.51,-0.01,-0.30
2.355,0.18,3.19,-0.69,-0.54,0.02,-0.32
2.357,0.29,3.35,-1.07,-0.54,0.02,-0.32
2.358,0.29,3.35,-1.07,-0.58,0.06,-0.34
2.359,0.29,3.35,-1.07,-0.62,0.09,-0.36
2.361,0.59,3.48,-1.32,-0.62,0.09,-0.36
2.362,0.59,3.48,-1.32,-0.66,0.13,-0.39
2.363,0.59,3.48,-1.32,-0.71,0.17,-0.43
2.365,0.77,3.50,-1.51,-0.71,0.17,-0.43
2.368,0.77,3.50,-1.51,-0.76,0.22,-0.46
2.369,0.77,3.50,-1.51,-0.81,0.26,-0.50
2.377,0.98,3.41,-1.69,-0.81,0.26,-0.50
2.378,0.98,3.41,-1.69,-0.87,0.31,-0.54
2.378,0.98,3.41,-1.69,-0.93,0.37,-0.59
2.378,1.27,3.27,-1.87,-0.93,0.37,-0.59
2.379,1.27,3.27,-1.87,-0.99,0.44,-0.65
2.379,1.27,3.27,-1.87,-1.06,0.51,-0.70
2.379,1.27,3.27,-1.87,-1.12,0.60,-0.76
2.379,1.55,3.11,-2.07,-1.12,0.60,-0.76
2.38,1.55,3.11,-2.07,-1.19,0.70,-0.82
2.381,1.55,3.11,-2.07,-1.26,0.79,-0.89
2.382,1.82,2.95,-2.20,-1.26,0.79,-0.89
2.393,1.82,2.95,-2.20,-1.32,0.90,-0.96
2.394,1.98,2.73,-2.27,-1.32,0.90,-0.96
2.394,1.98,2.73,-2.27,-1.39,1.00,-1.03
2.394,1.98,2.73,-2.27,-1.45,1.09,-1.09
2.395,2.05,2.52,-2.23,-1.45,1.09,-1.09
2.395,2.05,2.52,-2.23,-1.52,1.19,-1.16
2.395,2.05,2.52,-2.23,-1.58,1.28,-1.22
2.396,1.91,2.33,-2.25,-1.58,1.28,-1.22
2.396,1.91,2.33,-2.25,-1.64,1.35,-1.29
2.396,1.91,2.33,-2.25,-1.69,1.41,-1.36
2.397,1.92,2.39,-2.10,-1.69,1.41,-1.36
2.398,1.92,2.39,-2.10,-1.73,1.45,-1.43
2.399,1.92,2.39,-2.10,-1.78,1.49,-1.53
2.401,2.14,2.76,-1.90,-1.78,1.49,-1.53
2.402,2.14,2.76,-1.90,-1.82,1.51,-1.62
2.403,2.14,2.76,-1.90,-1.86,1.53,-1.72
2.406,3.00,4.03,-1.66,-1.86,1.53,-1.72
2.406,3.00,4.03,-1.66,-1.90,1.58,-1.81
2.407,3.00,4.03,-1.66,-1.93,1.63,-1.91
2.409,3.04,4.07,-1.40,-1.93,1.63,-1.91
2.41,3.04,4.07,-1.40,-1.96,1.67,-2.00
2.411,3.04,4.07,-1.40,-2.00,1.70,-2.09
2.413,3.01,4.14,-1.17,-2.00,1.70,-2.09
2.414,3.01,4.14,-1.17,-2.03,1.73,-2.19
2.415,3.01,4.14,-1.17,-2.06,1.74,-2.29
2.417,3.06,4.14,-0.93,-2.06,1.74,-2.29
2.418,3.06,4.14,-0.93,-2.09,1.72,-2.39
2.419,3.06,4.14,-0.93,-2.11,1.68,-2.50
2.421,3.19,3.94,-0.65,-2.11,1.68,-2.50
2.422,3.19,3.94,-0.65,-2.13,1.60,-2.61
2.424,3.19,3.94,-0.65,-2.14,1.50,-2.73
2.426,3.35,3.74,-0.11,-2.14,1.50,-2.73
2.426,3.35,3.74,-0.11,-2.13,1.38,-2.84
2.427,3.35,3.74,-0.11,-2.12,1.24,-2.97
2.429,3.35,3.74,-0.11,-2.10,1.08,-3.08
2.429,3.43,3.40,0.85,-2.10,1.08,-3.08
2.431,3.43,3.40,0.85,-2.06,0.89,-3.21
2.433,3.49,2.87,1.62,-2.06,0.89,-3.21
2.433,3.49,2.87,1.62,-2.03,0.69,-3.33
2.435,3.49,2.87,1.62,-1.98,0.49,-3.45
2.437,3.56,2.43,2.01,-1.98,0.49,-3.45
2.437,3.56,2.43,2.01,-1.93,0.27,-3.57
2.439,3.56,2.43,2.01,-1.87,0.05,-3.68
2.441,3.69,2.09,2.30,-1.87,0.05,-3.68
2.441,3.69,2.09,2.30,-1.82,-0.17,-3.79
2.443,3.69,2.09,2.30,-1.76,-0.40,-3.90
2.445,3.76,1.70,2.35,-1.76,-0.40,-3.90
2.445,3.76,1.70,2.35,-1.71,-0.64,-4.00
2.447,3.76,1.70,2.35,-1.66,-0.91,-4.10
2.449,3.70,1.46,1.77,-1.66,-0.91,-4.10
2.449,3.70,1.46,1.77,-1.62,-1.18,-4.18
2.451,3.70,1.46,1.77,-1.59,-1.46,-4.25
2.453,3.70,1.46,1.77,-1.56,-1.74,-4.30
2.453,3.51,1.22,1.10,-1.56,-1.74,-4.30
2.455,3.51,1.22,1.10,-1.54,-2.00,-4.34
2.457,3.18,1.07,0.53,-1.54,-2.00,-4.34
2.457,3.18,1.07,0.53,-1.53,-2.27,-4.36
2.459,3.18,1.07,0.53,-1.51,-2.52,-4.35
2.461,3.18,1.07,0.53,-1.51,-2.76,-4.32
2.461,2.74,1.06,-0.07,-1.51,-2.76,-4.32
2.463,2.74,1.06,-0.07,-1.50,-2.98,-4.27
2.465,2.74,1.06,-0.07,-1.48,-3.17,-4.18
2.465,2.03,0.85,-0.40,-1.48,-3.17,-4.18
2.473,2.03,0.85,-0.40,-1.47,-3.34,-4.08
2.474,2.03,0.85,-0.40,-1.46,-3.47,-3.94
2.474,1.11,0.65,-0.39,-1.46,-3.47,-3.94
2.475,1.11,0.65,-0.39,-1.43,-3.58,-3.78
2.475,0.04,0.38,-0.43,-1.43,-3.58,-3.78
2.475,0.04,0.38,-0.43,-1.41,-3.66,-3.59
2.476,0.04,0.38,-0.43,-1.37,-3.70,-3.36
2.477,-1.18,0.08,-0.13,-1.37,-3.70,-3.36
2.477,-1.18,0.08,-0.13,-1.33,-3.72,-3.12
2.479,-1.18,0.08,-0.13,-1.28,-3.70,-2.85
2.481,-1.18,0.08,-0.13,-1.22,-3.65,-2.56
2.481,-2.33,-0.19,0.41,-1.22,-3.65,-2.56
2.489,-2.33,-0.19,0.41,-1.16,-3.58,-2.26
2.49,-3.38,-0.42,0.85,-1.16,-3.58,-2.26
2.491,-3.38,-0.42,0.85,-1.09,-3.49,-1.93
2.491,-3.38,-0.42,0.85,-1.01,-3.38,-1.60
2.491,-4.15,-0.62,1.21,-1.01,-3.38,-1.60
2.492,-4.15,-0.62,1.21,-0.93,-3.25,-1.26
2.492,-4.15,-0.62,1.21,-0.86,-3.11,-0.92
2.493,-4.78,-0.78,1.32,-0.86,-3.11,-0.92
2.493,-4.78,-0.78,1.32,-0.79,-2.96,-0.59
2.495,-4.78,-0.78,1.32,-0.72,-2.79,-0.25
2.497,-4.91,-0.83,1.34,-0.72,-2.79,-0.25
2.497,-4.91,-0.83,1.34,-0.65,-2.62,0.06
2.5,-4.91,-0.83,1.34,-0.59,-2.44,0.35
2.502,-4.74,-0.74,1.17,-0.59,-2.44,0.35
2.502,-4.74,-0.74,1.17,-0.53,-2.26,0.63
2.503,-4.74,-0.74,1.17,-0.48,-2.06,0.88
2.505,-4.19,-0.29,0.91,-0.48,-2.06,0.88
2.506,-4.19,-0.29,0.91,-0.44,-1.87,1.11
2.507,-4.19,-0.29,0.91,-0.41,-1.68,1.32
2.509,-4.19,-0.29,0.91,-0.39,-1.49,1.49
2.509,-3.32,0.14,0.42,-0.39,-1.49,1.49
2.511,-3.32,0.14,0.42,-0.38,-1.30,1.65
2.513,-2.48,0.46,-0.27,-0.38,-1.30,1.65
2.513,-2.48,0.46,-0.27,-0.38,-1.12,1.79
2.515,-2.48,0.46,-0.27,-0.39,-0.94,1.91
2.517,-1.72,0.86,-0.81,-0.39,-0.94,1.91
2.518,-1.72,0.86,-0.81,-0.40,-0.76,2.01
2.519,-1.72,0.86,-0.81,-0.41,-0.60,2.09
2.521,-1.01,1.22,-1.28,-0.41,-0.60,2.09
2.521,-1.01,1.22,-1.28,-0.43,-0.43,2.15
2.523,-1.01,1.22,-1.28,-0.46,-0.27,2.20
2.525,-0.39,1.48,-1.67,-0.46,-0.27,2.20
2.526,-0.39,1.48,-1.67,-0.48,-0.11,2.24
2.527,-0.39,1.48,-1.67,-0.50,0.05,2.27
2.529,-0.39,1.48,-1.67,-0.53,0.22,2.28
2.529,0.11,1.78,-1.86,-0.53,0.22,2.28
2.531,0.11,1.78,-1.86,-0.56,0.39,2.30
2.534,0.47,2.10,-2.06,-0.56,0.39,2.30
2.534,0.47,2.10,-2.06,-0.58,0.57,2.30
2.535,0.47,2.10,-2.06,-0.60,0.74,2.31
2.537,0.72,2.34,-2.05,-0.60,0.74,2.31
2.537,0.72,2.34,-2.05,-0.63,0.92,2.31
2.539,0.72,2.34,-2.05,-0.64,1.09,2.30
2.541,0.85,2.46,-2.05,-0.64,1.09,2.30
2.541,0.85,2.46,-2.05,-0.65,1.24,2.29
2.543,0.85,2.46,-2.05,-0.66,1.40,2.28
2.545,1.08,2.67,-1.84,-0.66,1.40,2.28
2.545,1.08,2.67,-1.84,-0.66,1.56,2.26
2.547,1.08,2.67,-1.84,-0.66,1.72,2.25
2.549,1.30,2.84,-1.59,-0.66,1.72,2.25
2.549,1.30,2.84,-1.59,-0.66,1.88,2.23
2.551,1.30,2.84,-1.59,-0.66,2.03,2.20
2.553,1.30,2.84,-1.59,-0.65,2.18,2.19
2.553,1.59,3.02,-1.42,-0.65,2.18,2.19
2.555,1.59,3.02,-1.42,-0.64,2.31,2.17
2.557,1.74,3.09,-1.17,-0.64,2.31,2.17
2.557,1.74,3.09,-1.17,-0.62,2.43,2.15
2.559,1.74,3.09,-1.17,-0.60,2.55,2.14
2.561,1.72,3.18,-0.93,-0.60,2.55,2.14
2.561,1.72,3.18,-0.93,-0.58,2.65,2.14
2.562,1.72,3.18,-0.93,-0.55,2.75,2.13
2.565,1.70,3.30,-0.60,-0.55,2.75,2.13
2.565,1.70,3.30,-0.60,-0.52,2.83,2.13
2.573,1.70,3.30,-0.60,-0.48,2.90,2.13
2.574,1.70,3.30,-0.60,-0.44,2.96,2.12
2.575,1.81,3.28,-0.22,-0.44,2.96,2.12
2.575,1.81,3.28,-0.22,-0.39,3.01,2.12
2.575,1.96,3.19,0.35,-0.39,3.01,2.12
2.575,1.96,3.19,0.35,-0.33,3.04,2.12
2.576,1.96,3.19,0.35,-0.28,3.05,2.12
2.577,1.97,2.96,0.93,-0.28,3.05,2.12
2.577,1.97,2.96,0.93,-0.20,3.03,2.11
2.578,1.97,2.96,0.93,-0.12,2.98,2.10
2.581,1.97,2.96,0.93,-0.04,2.92,2.09
2.581,2.10,2.69,1.77,-0.04,2.92,2.09
2.583,2.10,2.69,1.77,0.04,2.85,2.08
2.59,2.09,2.30,2.51,0.04,2.85,2.08
2.591,2.09,2.30,2.51,0.12,2.76,2.07
2.591,2.09,2.30,2.51,0.21,2.64,2.06
2.592,2.11,1.95,2.62,0.21,2.64,2.06
2.592,2.11,1.95,2.62,0.30,2.52,2.04
2.592,2.11,1.95,2.62,0.38,2.40,2.02
2.593,2.10,1.58,2.72,0.38,2.40,2.02
2.593,2.10,1.58,2.72,0.45,2.28,2.00
2.594,2.10,1.58,2.72,0.51,2.17,1.97
2.597,2.29,1.31,2.16,0.51,2.17,1.97
2.597,2.29,1.31,2.16,0.55,2.08,1.94
2.598,2.29,1.31,2.16,0.60,1.98,1.91
2.6,2.41,1.01,1.50,0.60,1.98,1.91
2.601,2.41,1.01,1.50,0.63,1.89,1.86
2.602,2.41,1.01,1.50,0.66,1.82,1.82
2.605,2.48,0.63,1.06,0.66,1.82,1.82
2.606,2.48,0.63,1.06,0.68,1.75,1.77
2.607,2.48,0.63,1.06,0.70,1.69,1.71
2.608,2.39,0.11,0.69,0.70,1.69,1.71
2.609,2.39,0.11,0.69,0.72,1.66,1.65
2.61,2.39,0.11,0.69,0.73,1.65,1.58
2.612,2.39,0.11,0.69,0.73,1.66,1.50
2.613,2.61,-0.31,0.74,0.73,1.66,1.50
2.614,2.61,-0.31,0.74,0.74,1.69,1.41
2.617,2.73,-0.80,0.59,0.74,1.69,1.41
2.618,2.73,-0.80,0.59,0.75,1.73,1.31
2.618,2.73,-0.80,0.59,0.76,1.80,1.21
2.621,2.87,-1.42,0.93,0.76,1.80,1.21
2.621,2.87,-1.42,0.93,0.77,1.86,1.11
2.622,2.87,-1.42,0.93,0.78,1.94,1.00
2.625,3.00,-2.16,0.94,0.78,1.94,1.00
2.625,3.00,-2.16,0.94,0.78,2.02,0.87
2.626,3.00,-2.16,0.94,0.78,2.09,0.73
2.628,3.36,-3.02,0.90,0.78,2.09,0.73
2.629,3.36,-3.02,0.90,0.77,2.17,0.57
2.63,3.36,-3.02,0.90,0.76,2.22,0.39
2.633,3.55,-4.06,0.38,0.76,2.22,0.39
2.633,3.55,-4.06,0.38,0.74,2.24,0.17
2.635,3.55,-4.06,0.38,0.73,2.22,-0.07
2.636,4.18,-5.58,-0.18,0.73,2.22,-0.07
2.637,4.18,-5.58,-0.18,0.71,2.19,-0.32
2.639,4.18,-5.58,-0.18,0.68,2.15,-0.56
2.641,3.03,-7.87,-0.30,0.68,2.15,-0.56
2.641,3.03,-7.87,-0.30,0.66,2.09,-0.81
2.642,3.03,-7.87,-0.30,0.62,2.03,-1.04
2.645,0.98,-9.94,-1.17,0.62,2.03,-1.04
2.645,0.98,-9.94,-1.17,0.58,1.96,-1.26
2.647,0.98,-9.94,-1.17,0.53,1.88,-1.48
2.648,-0.64,-11.53,-1.85,0.53,1.88,-1.48
2.649,-0.64,-11.53,-1.85,0.47,1.80,-1.68
2.65,-0.64,-11.53,-1.85,0.41,1.71,-1.86
2.652,-0.64,-11.53,-1.85,0.35,1.62,-2.02
2.653,-2.03,-12.80,-2.35,0.35,1.62,-2.02
2.654,-2.03,-12.80,-2.35,0.28,1.52,-2.16
2.657,-3.59,-13.80,-2.71,0.28,1.52,-2.16
2.657,-3.59,-13.80,-2.71,0.21,1.43,-2.26
2.658,-3.59,-13.80,-2.71,0.13,1.33,-2.34
2.66,-3.59,-13.80,-2.71,0.05,1.23,-2.37
2.661,-5.34,-14.79,-2.89,0.05,1.23,-2.37
2.662,-5.34,-14.79,-2.89,-0.03,1.12,-2.37
2.664,-7.19,-15.53,-3.06,-0.03,1.12,-2.37
2.665,-7.19,-15.53,-3.06,-0.11,1.02,-2.33
2.673,-7.19,-15.53,-3.06,-0.20,0.92,-2.26
2.674,-7.19,-15.53,-3.06,-0.29,0.83,-2.15
2.675,-8.99,-15.92,-3.11,-0.29,0.83,-2.15
2.675,-8.99,-15.92,-3.11,-0.37,0.73,-2.02
2.676,-10.53,-16.02,-3.08,-0.37,0.73,-2.02
2.676,-10.53,-16.02,-3.08,-0.46,0.63,-1.85
2.677,-10.53,-16.02,-3.08,-0.55,0.52,-1.67
2.678,-11.72,-15.89,-2.97,-0.55,0.52,-1.67
2.678,-11.72,-15.89,-2.97,-0.63,0.41,-1.46
2.679,-11.72,-15.89,-2.97,-0.71,0.28,-1.22
2.68,-11.72,-15.89,-2.97,-0.78,0.15,-0.98
2.681,-12.41,-15.42,-2.81,-0.78,0.15,-0.98
2.682,-12.41,-15.42,-2.81,-0.85,0.02,-0.72
2.691,-12.76,-14.58,-2.65,-0.85,0.02,-0.72
2.693,-12.76,-14.58,-2.65,-0.90,-0.12,-0.46
2.693,-12.76,-14.58,-2.65,-0.94,-0.25,-0.22
2.694,-11.78,-12.70,-1.98,-0.94,-0.25,-0.22
2.694,-11.78,-12.70,-1.98,-0.97,-0.35,-0.02
2.695,-11.78,-12.70,-1.98,-0.97,-0.44,0.14
2.695,-8.65,-9.42,-0.91,-0.97,-0.44,0.14
2.696,-8.65,-9.42,-0.91,-0.96,-0.50,0.25
2.696,-8.65,-9.42,-0.91,-0.93,-0.54,0.31
2.696,-4.61,-6.13,0.43,-0.93,-0.54,0.31
2.697,-4.61,-6.13,0.43,-0.89,-0.56,0.35
2.698,-4.61,-6.13,0.43,-0.83,-0.57,0.36
2.7,-1.49,-3.62,1.66,-0.83,-0.57,0.36
2.701,-1.49,-3.62,1.66,-0.76,-0.56,0.34
2.702,-1.49,-3.62,1.66,-0.68,-0.55,0.30
2.705,0.80,-1.68,2.57,-0.68,-0.55,0.30
2.705,0.80,-1.68,2.57,-0.60,-0.53,0.25
2.706,0.80,-1.68,2.57,-0.51,-0.50,0.20
2.708,0.80,-1.68,2.57,-0.42,-0.47,0.14
2.708,2.34,-0.16,3.09,-0.42,-0.47,0.14
2.71,2.34,-0.16,3.09,-0.33,-0.43,0.08
2.712,3.22,0.99,3.28,-0.33,-0.43,0.08
2.712,3.22,0.99,3.28,-0.25,-0.40,0.02
2.714,3.22,0.99,3.28,-0.17,-0.36,-0.03
2.717,3.67,1.86,3.26,-0.17,-0.36,-0.03
2.717,3.67,1.86,3.26,-0.08,-0.32,-0.09
2.718,3.67,1.86,3.26,-0.01,-0.28,-0.14
2.721,3.84,2.48,3.09,-0.01,-0.28,-0.14
2.721,3.84,2.48,3.09,0.06,-0.24,-0.18
2.722,3.84,2.48,3.09,0.12,-0.20,-0.20
2.725,3.70,2.83,2.78,0.12,-0.20,-0.20
2.725,3.70,2.83,2.78,0.18,-0.15,-0.23
2.726,3.70,2.83,2.78,0.23,-0.12,-0.24
2.728,3.70,2.83,2.78,0.27,-0.08,-0.24
2.728,3.26,2.95,2.36,0.27,-0.08,-0.24
2.73,3.26,2.95,2.36,0.31,-0.04,-0.23
2.732,2.51,2.84,1.90,0.31,-0.04,-0.23
2.732,2.51,2.84,1.90,0.34,-0.00,-0.20
2.734,2.51,2.84,1.90,0.36,0.02,-0.17
2.736,1.63,2.61,1.40,0.36,0.02,-0.17
2.736,1.63,2.61,1.40,0.38,0.05,-0.13
2.738,1.63,2.61,1.40,0.39,0.07,-0.09
2.74,0.88,2.37,0.91,0.39,0.07,-0.09
2.741,0.88,2.37,0.91,0.40,0.09,-0.05
2.742,0.88,2.37,0.91,0.40,0.12,-0.01
2.744,0.42,1.98,0.47,0.40,0.12,-0.01
2.744,0.42,1.98,0.47,0.41,0.13,0.02
2.746,0.42,1.98,0.47,0.41,0.15,0.04
2.748,0.22,1.56,0.12,0.41,0.15,0.04
2.748,0.22,1.56,0.12,0.41,0.17,0.05
2.757,0.22,1.56,0.12,0.41,0.18,0.06
2.758,0.15,1.12,-0.12,0.41,0.18,0.06
2.758,0.15,1.12,-0.12,0.41,0.20,0.06
2.758,0.15,1.12,-0.12,0.41,0.21,0.06
2.759,0.05,0.69,-0.30,0.41,0.21,0.06
2.759,0.05,0.69,-0.30,0.41,0.22,0.06
2.759,0.05,0.69,-0.30,0.41,0.24,0.05
2.76,-0.09,0.36,-0.48,0.41,0.24,0.05
2.76,-0.09,0.36,-0.48,0.40,0.24,0.04
2.762,-0.09,0.36,-0.48,0.40,0.25,0.04
2.764,-0.09,0.36,-0.48,0.39,0.26,0.03
2.767,-0.26,0.11,-0.66,0.39,0.26,0.03
2.768,-0.26,0.11,-0.66,0.38,0.26,0.03
2.768,-0.26,0.11,-0.66,0.37,0.26,0.02
2.768,-0.45,-0.07,-0.81,0.37,0.26,0.02
2.774,-0.45,-0.07,-0.81,0.36,0.26,0.02
2.775,-0.58,-0.18,-0.94,0.36,0.26,0.02
2.775,-0.58,-0.18,-0.94,0.34,0.26,0.02
2.775,-0.58,-0.18,-0.94,0.33,0.25,0.01
2.776,-0.63,-0.20,-1.09,0.33,0.25,0.01
2.776,-0.63,-0.20,-1.09,0.31,0.24,0.02
2.778,-0.63,-0.20,-1.09,0.29,0.24,0.01
2.78,-0.64,-0.17,-1.19,0.29,0.24,0.01
2.78,-0.64,-0.17,-1.19,0.27,0.23,0.01
2.782,-0.64,-0.17,-1.19,0.24,0.22,0.01
2.784,-0.60,-0.11,-1.26,0.24,0.22,0.01
2.785,-0.60,-0.11,-1.26,0.22,0.21,0.01
2.786,-0.60,-0.11,-1.26,0.19,0.20,0.00
2.788,-0.53,-0.06,-1.30,0.19,0.20,0.00
2.788,-0.53,-0.06,-1.30,0.17,0.19,-0.00
2.79,-0.53,-0.06,-1.30,0.14,0.18,-0.00
2.792,-0.45,0.00,-1.31,0.14,0.18,-0.00
2.792,-0.45,0.00,-1.31,0.12,0.18,-0.01
2.794,-0.45,0.00,-1.31,0.09,0.18,-0.01
2.796,-0.45,0.00,-1.31,0.07,0.17,-0.01
2.796,-0.42,0.08,-1.26,0.07,0.17,-0.01
2.798,-0.42,0.08,-1.26,0.05,0.17,-0.02
2.8,-0.40,0.16,-1.19,0.05,0.17,-0.02
2.801,-0.40,0.16,-1.19,0.02,0.16,-0.02
2.802,-0.40,0.16,-1.19,0.01,0.16,-0.02
2.804,-0.39,0.25,-1.11,0.01,0.16,-0.02
2.805,-0.39,0.25,-1.11,-0.02,0.16,-0.02
2.806,-0.39,0.25,-1.11,-0.03,0.16,-0.02
2.808,-0.40,0.30,-1.03,-0.03,0.16,-0.02
2.808,-0.40,0.30,-1.03,-0.05,0.15,-0.02
2.81,-0.40,0.30,-1.03,-0.06,0.14,-0.03
2.812,-0.40,0.30,-1.03,-0.08,0.13,-0.03
2.812,-0.43,0.36,-0.91,-0.08,0.13,-0.03
2.814,-0.43,0.36,-0.91,-0.09,0.12,-0.03
2.816,-0.48,0.39,-0.79,-0.09,0.12,-0.03
2.816,-0.48,0.39,-0.79,-0.10,0.11,-0.03
2.818,-0.48,0.39,-0.79,-0.10,0.10,-0.03
2.82,-0.52,0.41,-0.67,-0.10,0.10,-0.03
2.82,-0.52,0.41,-0.67,-0.11,0.09,-0.03
2.822,-0.52,0.41,-0.67,-0.12,0.07,-0.03
2.824,-0.56,0.41,-0.54,-0.12,0.07,-0.03
2.825,-0.56,0.41,-0.54,-0.12,0.06,-0.03
2.826,-0.56,0.41,-0.54,-0.12,0.05,-0.03
2.828,-0.62,0.41,-0.39,-0.12,0.05,-0.03
2.828,-0.62,0.41,-0.39,-0.12,0.03,-0.03
2.83,-0.62,0.41,-0.39,-0.12,0.02,-0.03
2.832,-0.69,0.39,-0.28,-0.12,0.02,-0.03
2.832,-0.69,0.39,-0.28,-0.12,0.01,-0.02
2.834,-0.69,0.39,-0.28,-0.12,0.00,-0.02
2.836,-0.75,0.35,-0.20,-0.12,0.00,-0.02
2.836,-0.75,0.35,-0.20,-0.12,-0.00,-0.02
2.838,-0.75,0.35,-0.20,-0.12,-0.01,-0.02
2.84,-0.80,0.31,-0.12,-0.12,-0.01,-0.02
2.84,-0.80,0.31,-0.12,-0.12,-0.02,-0.01
2.842,-0.80,0.31,-0.12,-0.11,-0.02,-0.01
2.844,-0.85,0.25,-0.05,-0.11,-0.02,-0.01
2.844,-0.85,0.25,-0.05,-0.11,-0.02,-0.00
2.846,-0.85,0.25,-0.05,-0.11,-0.02,-0.00
2.848,-0.89,0.19,-0.02,-0.11,-0.02,-0.00
2.848,-0.89,0.19,-0.02,-0.11,-0.03,0.00
2.85,-0.89,0.19,-0.02,-0.11,-0.03,0.00
2.852,-0.89,0.19,-0.02,-0.11,-0.03,0.01
2.852,-0.90,0.15,-0.02,-0.11,-0.03,0.01
2.854,-0.90,0.15,-0.02,-0.11,-0.03,0.01
2.856,-0.90,0.11,-0.00,-0.11,-0.03,0.01
2.856,-0.90,0.11,-0.00,-0.11,-0.03,0.02
2.858,-0.90,0.11,-0.00,-0.11,-0.03,0.02
2.86,-0.86,0.07,-0.03,-0.11,-0.03,0.02
2.86,-0.86,0.07,-0.03,-0.11,-0.03,0.03
2.861,-0.86,0.07,-0.03,-0.11,-0.03,0.03
2.864,-0.86,0.07,-0.03,-0.11,-0.02,0.04
2.864,-0.78,0.06,-0.02,-0.11,-0.02,0.04
2.866,-0.78,0.06,-0.02,-0.11,-0.02,0.04
2.874,-0.69,0.05,-0.02,-0.11,-0.02,0.04
2.874,-0.69,0.05,-0.02,-0.11,-0.01,0.05
2.875,-0.69,0.05,-0.02,-0.11,-0.01,0.05
2.875,-0.56,0.03,-0.00,-0.11,-0.01,0.05
2.875,-0.56,0.03,-0.00,-0.11,-0.00,0.06
2.876,-0.56,0.03,-0.00,-0.11,-0.00,0.06
2.876,-0.41,0.01,0.01,-0.11,-0.00,0.06
2.876,-0.41,0.01,0.01,-0.11,0.01,0.06
2.878,-0.41,0.01,0.01,-0.11,0.01,0.07
2.88,-0.41,0.01,0.01,-0.10,0.02,0.07
2.88,-0.23,-0.01,0.05,-0.10,0.02,0.07
2.881,-0.23,-0.01,0.05,-0.10,0.03,0.07
2.891,-0.05,-0.04,0.08,-0.10,0.03,0.07
2.892,-0.05,-0.04,0.08,-0.10,0.04,0.08
2.892,-0.05,-0.04,0.08,-0.09,0.04,0.07
2.892,0.11,-0.10,0.10,-0.09,0.04,0.07
2.893,0.11,-0.10,0.10,-0.09,0.05,0.07
2.893,0.11,-0.10,0.10,-0.08,0.06,0.07
2.893,0.25,-0.16,0.14,-0.08,0.06,0.07
2.893,0.25,-0.16,0.14,-0.08,0.07,0.07
2.894,0.25,-0.16,0.14,-0.07,0.08,0.08
2.896,0.37,-0.22,0.17,-0.07,0.08,0.08
2.896,0.37,-0.22,0.17,-0.07,0.08,0.07
2.899,0.37,-0.22,0.17,-0.06,0.08,0.07
2.901,0.48,-0.29,0.18,-0.06,0.08,0.07
2.901,0.48,-0.29,0.18,-0.05,0.09,0.07
2.902,0.48,-0.29,0.18,-0.05,0.09,0.07
2.904,0.54,-0.36,0.18,-0.05,0.09,0.07
2.904,0.54,-0.36,0.18,-0.04,0.09,0.07
2.906,0.54,-0.36,0.18,-0.03,0.09,0.07
2.908,0.60,-0.40,0.19,-0.03,0.09,0.07
2.908,0.60,-0.40,0.19,-0.03,0.09,0.07
2.909,0.60,-0.40,0.19,-0.02,0.09,0.07
2.912,0.60,-0.40,0.19,-0.01,0.09,0.07
2.912,0.64,-0.43,0.20,-0.01,0.09,0.07
2.915,0.64,-0.43,0.20,-0.01,0.09,0.07
2.916,0.66,-0.45,0.19,-0.01,0.09,0.07
2.916,0.66,-0.45,0.19,-0.00,0.09,0.07
2.918,0.66,-0.45,0.19,0.00,0.08,0.06
2.92,0.68,-0.45,0.20,0.00,0.08,0.06
2.92,0.68,-0.45,0.20,0.01,0.08,0.06
2.922,0.68,-0.45,0.20,0.01,0.07,0.06
2.924,0.67,-0.44,0.18,0.01,0.07,0.06
2.925,0.67,-0.44,0.18,0.02,0.07,0.06
2.925,0.67,-0.44,0.18,0.02,0.06,0.05
2.928,0.67,-0.41,0.17,0.02,0.06,0.05
2.928,0.67,-0.41,0.17,0.03,0.06,0.05
2.929,0.67,-0.41,0.17,0.04,0.05,0.05
2.931,0.67,-0.41,0.17,0.04,0.05,0.05
2.932,0.66,-0.37,0.16,0.04,0.05,0.05
2.934,0.66,-0.37,0.16,0.05,0.05,0.04
2.935,0.66,-0.37,0.16,0.05,0.05,0.04
2.936,0.62,-0.32,0.13,0.05,0.05,0.04
2.938,0.62,-0.32,0.13,0.05,0.04,0.04
2.94,0.58,-0.26,0.08,0.05,0.04,0.04
2.94,0.58,-0.26,0.08,0.06,0.04,0.04
2.941,0.58,-0.26,0.08,0.06,0.04,0.03
2.944,0.56,-0.21,0.03,0.06,0.04,0.03
2.944,0.56,-0.21,0.03,0.06,0.04,0.03
2.945,0.56,-0.21,0.03,0.07,0.04,0.03
2.947,0.50,-0.16,-0.01,0.07,0.04,0.03
2.948,0.50,-0.16,-0.01,0.07,0.04,0.03
2.949,0.50,-0.16,-0.01,0.07,0.04,0.02
2.951,0.45,-0.13,-0.08,0.07,0.04,0.02
2.952,0.45,-0.13,-0.08,0.07,0.04,0.02
2.953,0.45,-0.13,-0.08,0.07,0.04,0.02
2.956,0.40,-0.11,-0.14,0.07,0.04,0.02
2.956,0.40,-0.11,-0.14,0.07,0.04,0.02
2.958,0.40,-0.11,-0.14,0.08,0.04,0.02
2.96,0.34,-0.09,-0.19,0.08,0.04,0.02
2.96,0.34,-0.09,-0.19,0.07,0.04,0.01
2.961,0.34,-0.09,-0.19,0.07,0.04,0.02
2.963,0.34,-0.09,-0.19,0.07,0.05,0.01
2.964,0.28,-0.08,-0.22,0.07,0.05,0.01
2.965,0.28,-0.08,-0.22,0.07,0.05,0.01
2.974,0.23,-0.08,-0.27,0.07,0.05,0.01
2.974,0.23,-0.08,-0.27,0.07,0.05,0.01
2.975,0.23,-0.08,-0.27,0.07,0.05,0.01
2.975,0.20,-0.05,-0.30,0.07,0.05,0.01
2.975,0.20,-0.05,-0.30,0.07,0.05,0.00
2.976,0.20,-0.05,-0.30,0.07,0.06,0.01
2.976,0.17,-0.01,-0.32,0.07,0.06,0.01
2.976,0.17,-0.01,-0.32,0.07,0.06,0.00
2.977,0.17,-0.01,-0.32,0.07,0.06,0.00
2.979,0.17,-0.01,-0.32,0.07,0.06,-0.00
2.98,0.16,0.02,-0.33,0.07,0.06,-0.00
2.981,0.16,0.02,-0.33,0.07,0.07,-0.00
2.988,0.12,0.07,-0.36,0.07,0.07,-0.00
2.989,0.12,0.07,-0.36,0.06,0.07,-0.00
2.989,0.12,0.07,-0.36,0.06,0.06,-0.01
2.989,0.10,0.12,-0.36,0.06,0.06,-0.01
2.989,0.10,0.12,-0.36,0.06,0.06,-0.01
2.99,0.10,0.12,-0.36,0.06,0.06,-0.01
2.991,0.10,0.12,-0.36,0.06,0.06,-0.01
2.992,0.06,0.16,-0.39,0.06,0.06,-0.01
2.993,0.06,0.16,-0.39,0.05,0.05,-0.01
2.995,0.06,0.16,-0.39,0.05,0.05,-0.02
2.995,-0.02,0.19,-0.40,0.05,0.05,-0.02
2.997,-0.02,0.19,-0.40,0.05,0.05,-0.02
2.999,-0.02,0.19,-0.40,0.04,0.04,-0.02
3.0,-0.08,0.21,-0.42,0.04,0.04,-0.02
3.001,-0.08,0.21,-0.42,0.04,0.04,-0.02
3.004,-0.17,0.24,-0.43,0.04,0.04,-0.02
3.004,-0.17,0.24,-0.43,0.04,0.04,-0.02
3.005,-0.17,0.24,-0.43,0.03,0.03,-0.02
3.007,-0.25,0.27,-0.44,0.03,0.03,-0.02
3.007,-0.25,0.27,-0.44,0.03,0.03,-0.03
3.009,-0.25,0.27,-0.44,0.03,0.02,-0.03
3.011,-0.37,0.29,-0.45,0.03,0.02,-0.03
3.011,-0.37,0.29,-0.45,0.02,0.01,-0.03
3.013,-0.37,0.29,-0.45,0.01,0.01,-0.03
3.015,-0.46,0.31,-0.46,0.01,0.01,-0.03
3.015,-0.46,0.31,-0.46,0.01,0.00,-0.03
3.017,-0.46,0.31,-0.46,0.00,-0.00,-0.03
3.019,-0.54,0.33,-0.45,0.00,-0.00,-0.03
3.019,-0.54,0.33,-0.45,-0.00,-0.01,-0.03
3.021,-0.54,0.33,-0.45,-0.01,-0.01,-0.03
3.024,-0.61,0.36,-0.45,-0.01,-0.01,-0.03
3.024,-0.61,0.36,-0.45,-0.01,-0.02,-0.03
3.025,-0.61,0.36,-0.45,-0.02,-0.02,-0.03
3.027,-0.61,0.36,-0.45,-0.02,-0.02,-0.03
3.027,-0.68,0.38,-0.45,-0.02,-0.02,-0.03
3.029,-0.68,0.38,-0.45,-0.03,-0.02,-0.03
3.032,-0.73,0.40,-0.43,-0.03,-0.02,-0.03
3.032,-0.73,0.40,-0.43,-0.03,-0.02,-0.03
3.034,-0.73,0.40,-0.43,-0.04,-0.03,-0.03
3.035,-0.78,0.42,-0.43,-0.04,-0.03,-0.03
3.035,-0.78,0.42,-0.43,-0.04,-0.03,-0.03
3.037,-0.78,0.42,-0.43,-0.05,-0.04,-0.03
3.039,-0.81,0.43,-0.41,-0.05,-0.04,-0.03
3.04,-0.81,0.43,-0.41,-0.05,-0.04,-0.02
3.041,-0.81,0.43,-0.41,-0.06,-0.04,-0.02
3.043,-0.81,0.45,-0.42,-0.06,-0.04,-0.02
3.044,-0.81,0.45,-0.42,-0.06,-0.05,-0.02
3.045,-0.81,0.45,-0.42,-0.07,-0.05,-0.02
3.047,-0.83,0.45,-0.41,-0.07,-0.05,-0.02
3.047,-0.83,0.45,-0.41,-0.07,-0.04,-0.02
3.049,-0.83,0.45,-0.41,-0.07,-0.03,-0.02
3.051,-0.86,0.50,-0.30,-0.07,-0.03,-0.02
3.052,-0.86,0.50,-0.30,-0.06,-0.02,-0.02
3.053,-0.86,0.50,-0.30,-0.06,-0.00,-0.02
3.055,-0.89,0.52,-0.19,-0.06,-0.00,-0.02
3.056,-0.89,0.52,-0.19,-0.05,0.02,-0.02
3.057,-0.89,0.52,-0.19,-0.05,0.03,-0.02
3.059,-0.91,0.47,-0.13,-0.05,0.03,-0.02
3.059,-0.91,0.47,-0.13,-0.04,0.04,-0.01
3.061,-0.91,0.47,-0.13,-0.04,0.06,-0.01
3.063,-0.91,0.38,-0.15,-0.04,0.06,-0.01
3.064,-0.91,0.38,-0.15,-0.04,0.07,-0.00
3.065,-0.91,0.38,-0.15,-0.03,0.08,0.00
3.074,-0.88,0.28,-0.17,-0.03,0.08,0.00
3.075,-0.88,0.28,-0.17,-0.03,0.09,0.01
3.075,-0.88,0.28,-0.17,-0.03,0.10,0.02
3.075,-0.76,0.22,-0.16,-0.03,0.10,0.02
3.076,-0.76,0.22,-0.16,-0.03,0.11,0.02
3.076,-0.76,0.22,-0.16,-0.02,0.11,0.03
3.076,-0.59,0.18,-0.18,-0.02,0.11,0.03
3.076,-0.59,0.18,-0.18,-0.02,0.12,0.03
3.077,-0.59,0.18,-0.18,-0.02,0.12,0.04
3.079,-0.43,0.14,-0.16,-0.02,0.12,0.04
3.079,-0.43,0.14,-0.16,-0.02,0.12,0.04
3.081,-0.43,0.14,-0.16,-0.02,0.12,0.04
3.09,-0.29,0.09,-0.13,-0.02,0.12,0.04
3.091,-0.29,0.09,-0.13,-0.02,0.12,0.04
3.091,-0.29,0.09,-0.13,-0.02,0.12,0.05
3.091,-0.17,0.05,-0.12,-0.02,0.12,0.05
3.092,-0.17,0.05,-0.12,-0.02,0.11,0.04
3.092,-0.17,0.05,-0.12,-0.02,0.11,0.05
3.092,-0.07,0.01,-0.12,-0.02,0.11,0.05
3.093,-0.07,0.01,-0.12,-0.02,0.10,0.05
3.093,-0.07,0.01,-0.12,-0.02,0.09,0.05
3.095,-0.07,0.01,-0.12,-0.03,0.07,0.05
3.095,0.00,-0.02,-0.11,-0.03,0.07,0.05
3.097,0.00,-0.02,-0.11,-0.03,0.07,0.06
3.099,0.08,-0.03,-0.14,-0.03,0.07,0.06
3.099,0.08,-0.03,-0.14,0.00,0.10,0.08
3.101,0.08,-0.03,-0.14,0.04,0.14,0.11
3.103,-0.55,0.72,0.56,0.04,0.14,0.11
3.103,-0.55,0.72,0.56,0.07,0.19,0.13
3.105,-0.55,0.72,0.56,0.11,0.23,0.15
3.107,-0.79,0.97,0.92,0.11,0.23,0.15
3.107,-0.79,0.97,0.92,0.15,0.26,0.17
3.109,-0.79,0.97,0.92,0.18,0.29,0.19
3.111,-0.75,0.92,0.82,0.18,0.29,0.19
3.111,-0.75,0.92,0.82,0.21,0.31,0.20
3.113,-0.75,0.92,0.82,0.23,0.33,0.21
3.115,-0.75,0.92,0.82,0.26,0.35,0.22
3.115,-0.63,0.74,0.65,0.26,0.35,0.22
3.117,-0.63,0.74,0.65,0.28,0.37,0.22
3.119,-0.63,0.74,0.65,0.30,0.38,0.22
3.119,-0.45,0.52,0.53,0.30,0.38,0.22
3.121,-0.45,0.52,0.53,0.31,0.39,0.22
3.123,-0.30,0.33,0.46,0.31,0.39,0.22
3.124,-0.30,0.33,0.46,0.32,0.39,0.22
3.125,-0.30,0.33,0.46,0.33,0.39,0.21
3.127,-0.30,0.33,0.46,0.33,0.39,0.21
3.127,-0.16,0.06,0.29,0.33,0.39,0.21
3.129,-0.16,0.06,0.29,0.32,0.38,0.20
3.131,0.03,-0.21,0.09,0.32,0.38,0.20
3.131,0.03,-0.21,0.09,0.31,0.37,0.19
3.133,0.03,-0.21,0.09,0.30,0.36,0.18
3.135,0.23,-0.40,-0.13,0.30,0.36,0.18
3.135,0.23,-0.40,-0.13,0.28,0.34,0.17
3.137,0.23,-0.40,-0.13,0.26,0.32,0.16
3.139,0.41,-0.51,-0.27,0.26,0.32,0.16
3.139,0.41,-0.51,-0.27,0.24,0.30,0.15
3.141,0.41,-0.51,-0.27,0.21,0.28,0.14
3.143,0.57,-0.58,-0.40,0.21,0.28,0.14
3.143,0.57,-0.58,-0.40,0.18,0.25,0.12
3.145,0.57,-0.58,-0.40,0.16,0.24,0.11
3.147,0.74,-0.61,-0.51,0.16,0.24,0.11
3.147,0.74,-0.61,-0.51,0.14,0.21,0.09
3.148,0.74,-0.61,-0.51,0.12,0.21,0.07
3.157,0.87,-0.59,-0.51,0.12,0.21,0.07
3.158,0.87,-0.59,-0.51,0.11,0.21,0.06
3.158,0.87,-0.59,-0.51,0.10,0.20,0.04
3.158,0.79,-0.43,-0.28,0.10,0.20,0.04
3.159,0.79,-0.43,-0.28,0.08,0.18,0.02
3.159,0.79,-0.43,-0.28,0.06,0.17,-0.00
3.159,0.93,-0.54,-0.53,0.06,0.17,-0.00
3.16,0.93,-0.54,-0.53,0.04,0.14,-0.03
3.161,0.93,-0.54,-0.53,0.02,0.11,-0.05
3.163,1.02,-0.60,-0.68,0.02,0.11,-0.05
3.166,1.02,-0.60,-0.68,-0.00,0.09,-0.08
3.167,1.02,-0.60,-0.68,-0.02,0.06,-0.10
3.167,1.00,-0.67,-0.70,-0.02,0.06,-0.10
3.167,1.00,-0.67,-0.70,-0.04,0.03,-0.12
3.175,1.00,-0.67,-0.70,-0.07,-0.01,-0.14
3.175,1.00,-0.67,-0.70,-0.09,-0.05,-0.15
3.175,0.85,-0.70,-0.83,-0.09,-0.05,-0.15
3.176,0.85,-0.70,-0.83,-0.12,-0.08,-0.15
3.176,0.56,-0.64,-0.90,-0.12,-0.08,-0.15
3.176,0.56,-0.64,-0.90,-0.14,-0.11,-0.15
3.176,0.56,-0.64,-0.90,-0.16,-0.14,-0.14
3.179,0.56,-0.64,-0.90,-0.18,-0.17,-0.12
3.179,0.25,-0.53,-0.80,-0.18,-0.17,-0.12
3.18,0.25,-0.53,-0.80,-0.20,-0.19,-0.10
3.183,0.00,-0.38,-0.73,-0.20,-0.19,-0.10
3.183,0.00,-0.38,-0.73,-0.23,-0.23,-0.07
3.184,0.00,-0.38,-0.73,-0.26,-0.26,-0.05
3.187,-0.17,-0.24,-0.83,-0.26,-0.26,-0.05
3.187,-0.17,-0.24,-0.83,-0.29,-0.32,-0.02
3.189,-0.17,-0.24,-0.83,-0.32,-0.36,-0.01
3.191,0.01,-0.18,-0.97,-0.32,-0.36,-0.01
3.191,0.01,-0.18,-0.97,-0.37,-0.42,-0.01
3.192,0.01,-0.18,-0.97,-0.41,-0.49,-0.02
3.194,0.64,-0.38,-1.08,-0.41,-0.49,-0.02
3.195,0.64,-0.38,-1.08,-0.46,-0.55,-0.03
3.196,0.64,-0.38,-1.08,-0.50,-0.59,-0.06
3.198,1.09,-0.68,-1.32,-0.50,-0.59,-0.06
3.199,1.09,-0.68,-1.32,-0.50,-0.58,-0.12
3.201,1.09,-0.68,-1.32,-0.57,-0.66,-0.11
3.203,1.09,-0.68,-1.32,-0.61,-0.70,-0.11
3.203,1.39,-0.23,-0.42,-0.61,-0.70,-0.11
3.205,1.39,-0.23,-0.42,-0.63,-0.72,-0.11
3.207,1.04,-2.24,-1.12,-0.63,-0.72,-0.11
3.207,1.04,-2.24,-1.12,-0.63,-0.71,-0.12
3.208,1.04,-2.24,-1.12,-0.63,-0.68,-0.13
3.211,1.33,-1.75,-0.10,-0.63,-0.68,-0.13
3.211,1.33,-1.75,-0.10,-0.61,-0.64,-0.16
3.212,1.33,-1.75,-0.10,-0.59,-0.59,-0.18
3.214,1.37,-1.09,0.54,-0.59,-0.59,-0.18
3.215,1.37,-1.09,0.54,-0.55,-0.54,-0.20
3.218,1.37,-1.09,0.54,-0.51,-0.48,-0.23
3.218,1.08,-0.56,0.94,-0.51,-0.48,-0.23
3.219,1.08,-0.56,0.94,-0.46,-0.42,-0.25
3.22,1.08,-0.56,0.94,-0.41,-0.36,-0.26
3.223,0.57,-0.20,1.19,-0.41,-0.36,-0.26
3.223,0.57,-0.20,1.19,-0.36,-0.30,-0.27
3.224,0.57,-0.20,1.19,-0.30,-0.25,-0.26
3.227,-0.09,0.07,1.30,-0.30,-0.25,-0.26
3.227,-0.09,0.07,1.30,-0.25,-0.20,-0.26
3.228,-0.09,0.07,1.30,-0.20,-0.16,-0.23
3.23,-0.09,0.07,1.30,-0.15,-0.13,-0.21
3.231,-0.74,0.30,1.31,-0.15,-0.13,-0.21
3.232,-0.74,0.30,1.31,-0.11,-0.11,-0.17
3.235,-1.37,0.60,1.19,-0.11,-0.11,-0.17
3.235,-1.37,0.60,1.19,-0.07,-0.09,-0.13
3.237,-1.37,0.60,1.19,-0.03,-0.07,-0.09
3.239,-1.71,0.91,1.09,-0.03,-0.07,-0.09
3.239,-1.71,0.91,1.09,0.01,-0.05,-0.06
3.24,-1.71,0.91,1.09,0.04,-0.04,-0.02
3.243,-1.61,1.06,1.02,0.04,-0.04,-0.02
3.243,-1.61,1.06,1.02,0.06,-0.02,0.00
3.244,-1.61,1.06,1.02,0.09,-0.02,0.02
3.246,-1.37,1.17,0.89,0.09,-0.02,0.02
3.247,-1.37,1.17,0.89,0.11,-0.01,0.04
3.248,-1.37,1.17,0.89,0.12,-0.01,0.06
3.258,-1.15,1.22,0.69,0.12,-0.01,0.06
3.258,-1.15,1.22,0.69,0.13,-0.02,0.08
3.259,-1.15,1.22,0.69,0.13,-0.02,0.09
3.259,-1.05,1.15,0.49,0.13,-0.02,0.09
3.259,-1.05,1.15,0.49,0.14,-0.03,0.09
3.26,-1.05,1.15,0.49,0.13,-0.04,0.10
3.26,-1.05,1.15,0.49,0.13,-0.05,0.10
3.26,-0.80,0.91,0.32,0.13,-0.05,0.10
3.261,-0.80,0.91,0.32,0.12,-0.06,0.10
3.263,-0.60,0.62,0.11,0.12,-0.06,0.10
3.263,-0.60,0.62,0.11,0.12,-0.06,0.11
3.264,-0.60,0.62,0.11,0.10,-0.07,0.10
3.274,-0.45,0.32,-0.01,0.10,-0.07,0.10
3.275,-0.45,0.32,-0.01,0.09,-0.07,0.10
3.275,-0.45,0.32,-0.01,0.09,-0.06,0.10
3.275,-0.25,0.01,-0.08,0.09,-0.06,0.10
3.276,-0.25,0.01,-0.08,0.08,-0.05,0.09
3.276,-0.25,0.01,-0.08,0.07,-0.05,0.08
3.276,0.02,-0.22,-0.15,0.07,-0.05,0.08
3.277,0.02,-0.22,-0.15,0.06,-0.04,0.07
3.277,0.02,-0.22,-0.15,0.06,-0.02,0.06
3.278,0.28,-0.44,-0.21,0.06,-0.02,0.06
3.279,0.28,-0.44,-0.21,0.05,-0.00,0.05
3.28,0.28,-0.44,-0.21,0.06,0.01,0.04
3.282,0.43,-0.60,-0.24,0.06,0.01,0.04
3.283,0.43,-0.60,-0.24,0.05,0.04,0.03
3.284,0.43,-0.60,-0.24,0.05,0.06,0.03
3.286,0.43,-0.60,-0.24,0.05,0.07,0.02
3.286,0.55,-0.69,-0.26,0.05,0.07,0.02
3.288,0.55,-0.69,-0.26,0.04,0.08,0.02
3.291,0.60,-0.61,-0.44,0.04,0.08,0.02
3.291,0.60,-0.61,-0.44,0.04,0.09,0.02
3.292,0.60,-0.61,-0.44,0.03,0.09,0.02
3.294,0.67,-0.49,-0.55,0.03,0.09,0.02
3.294,0.67,-0.49,-0.55,0.03,0.09,0.01
3.296,0.67,-0.49,-0.55,0.02,0.09,0.01
3.298,0.67,-0.49,-0.55,0.01,0.08,0.01
3.298,0.71,-0.35,-0.60,0.01,0.08,0.01
3.3,0.71,-0.35,-0.60,0.00,0.08,0.00
3.303,0.70,-0.21,-0.60,0.00,0.08,0.00
3.303,0.70,-0.21,-0.60,-0.01,0.07,-0.00
3.305,0.70,-0.21,-0.60,-0.01,0.06,0.00
3.307,0.60,-0.12,-0.54,-0.01,0.06,0.00
3.307,0.60,-0.12,-0.54,-0.02,0.05,-0.00
3.308,0.60,-0.12,-0.54,-0.02,0.04,-0.01
3.31,0.60,-0.12,-0.54,-0.03,0.03,-0.01
3.311,0.44,-0.04,-0.45,-0.03,0.03,-0.01
3.312,0.44,-0.04,-0.45,-0.03,0.03,-0.01
3.314,0.28,0.00,-0.32,-0.03,0.03,-0.01
3.315,0.28,0.00,-0.32,-0.04,0.02,-0.01
3.316,0.28,0.00,-0.32,-0.04,0.01,-0.01
3.319,0.15,0.05,-0.18,-0.04,0.01,-0.01
3.32,0.15,0.05,-0.18,-0.04,0.01,-0.01
3.32,0.15,0.05,-0.18,-0.04,0.01,-0.01
3.323,0.05,0.07,-0.02,-0.04,0.01,-0.01
3.323,0.05,0.07,-0.02,-0.03,0.01,-0.01
3.324,0.05,0.07,-0.02,-0.03,0.01,-0.01
3.326,0.05,0.07,-0.02,-0.03,0.01,-0.01
3.327,-0.06,0.09,0.08,-0.03,0.01,-0.01
3.328,-0.06,0.09,0.08,-0.02,0.01,-0.01
3.33,-0.06,0.09,0.08,-0.02,0.01,-0.01
3.331,-0.15,0.10,0.17,-0.02,0.01,-0.01
3.332,-0.15,0.10,0.17,-0.01,0.02,-0.01
3.334,-0.15,0.10,0.17,-0.01,0.03,-0.01
3.335,-0.21,0.10,0.25,-0.01,0.03,-0.01
3.336,-0.21,0.10,0.25,0.00,0.04,-0.01
3.338,-0.27,0.16,0.32,0.00,0.04,-0.01
3.339,-0.27,0.16,0.32,0.01,0.05,-0.01
3.34,-0.27,0.16,0.32,0.02,0.06,-0.01
3.342,-0.30,0.18,0.35,0.02,0.06,-0.01
3.343,-0.30,0.18,0.35,0.03,0.07,-0.01
3.344,-0.30,0.18,0.35,0.04,0.08,-0.01
3.346,-0.28,0.17,0.32,0.04,0.08,-0.01
3.346,-0.28,0.17,0.32,0.04,0.09,-0.01
3.348,-0.28,0.17,0.32,0.06,0.11,-0.01
3.358,-0.38,0.27,0.32,0.06,0.11,-0.01
3.358,-0.38,0.27,0.32,0.07,0.14,-0.01
3.359,-0.38,0.27,0.32,0.09,0.17,-0.02
3.359,-0.63,0.54,0.52,0.09,0.17,-0.02
3.359,-0.63,0.54,0.52,0.10,0.18,-0.02
3.36,-0.63,0.54,0.52,0.11,0.19,-0.03
3.36,-0.77,0.66,0.39,0.11,0.19,-0.03
3.36,-0.77,0.66,0.39,0.11,0.19,-0.03
3.361,-0.77,0.66,0.39,0.11,0.19,-0.04
3.363,-0.92,0.69,0.17,0.11,0.19,-0.04
3.363,-0.92,0.69,0.17,0.12,0.19,-0.04
3.364,-0.92,0.69,0.17,0.12,0.20,-0.05
3.366,-0.96,0.66,0.13,0.12,0.20,-0.05
3.367,-0.96,0.66,0.13,0.13,0.21,-0.06
3.376,-0.96,0.66,0.13,0.14,0.22,-0.07
3.376,-0.86,0.65,0.23,0.14,0.22,-0.07
3.377,-0.86,0.65,0.23,0.14,0.22,-0.09
3.377,-0.86,0.65,0.23,0.16,0.23,-0.11
3.377,-0.74,0.65,0.29,0.16,0.23,-0.11
3.378,-0.74,0.65,0.29,0.17,0.25,-0.15
3.378,-0.74,0.65,0.29,0.19,0.27,-0.21
3.378,-0.74,0.65,0.29,0.20,0.30,-0.29
3.379,-0.56,0.81,0.39,0.20,0.30,-0.29
3.38,-0.56,0.81,0.39,0.22,0.34,-0.38
3.382,-0.45,1.22,0.50,0.22,0.34,-0.38
3.383,-0.45,1.22,0.50,0.23,0.36,-0.47
3.384,-0.45,1.22,0.50,0.22,0.37,-0.55
3.386,-1.08,1.49,0.18,0.22,0.37,-0.55
3.386,-1.08,1.49,0.18,0.20,0.38,-0.62
3.388,-1.08,1.49,0.18,0.18,0.37,-0.68
3.39,-1.79,1.11,-0.40,0.18,0.37,-0.68
3.391,-1.79,1.11,-0.40,0.15,0.36,-0.72
3.392,-1.79,1.11,-0.40,0.12,0.34,-0.75
3.394,-2.21,0.56,-0.82,0.12,0.34,-0.75
3.395,-2.21,0.56,-0.82,0.08,0.32,-0.78
3.396,-2.21,0.56,-0.82,0.03,0.29,-0.81
3.398,-2.26,0.04,-1.08,0.03,0.29,-0.81
3.398,-2.26,0.04,-1.08,-0.01,0.26,-0.83
3.401,-2.26,0.04,-1.08,-0.06,0.22,-0.85
3.402,-2.02,-0.25,-1.25,-0.06,0.22,-0.85
3.403,-2.02,-0.25,-1.25,-0.11,0.18,-0.88
3.404,-2.02,-0.25,-1.25,-0.15,0.13,-0.90
3.406,-1.59,-0.46,-1.27,-0.15,0.13,-0.90
3.407,-1.59,-0.46,-1.27,-0.19,0.09,-0.93
3.408,-1.59,-0.46,-1.27,-0.23,0.05,-0.96
3.41,-1.18,-0.60,-1.19,-0.23,0.05,-0.96
3.41,-1.18,-0.60,-1.19,-0.26,0.00,-0.99
3.412,-1.18,-0.60,-1.19,-0.29,-0.04,-1.02
3.414,-0.79,-0.69,-1.00,-0.29,-0.04,-1.02
3.414,-0.79,-0.69,-1.00,-0.31,-0.08,-1.05
3.416,-0.79,-0.69,-1.00,-0.33,-0.12,-1.09
3.418,-0.79,-0.69,-1.00,-0.34,-0.15,-1.13
3.418,-0.37,-0.79,-0.79,-0.34,-0.15,-1.13
3.42,-0.37,-0.79,-0.79,-0.35,-0.19,-1.18
3.423,0.05,-0.88,-0.60,-0.35,-0.19,-1.18
3.423,0.05,-0.88,-0.60,-0.35,-0.22,-1.22
3.424,0.05,-0.88,-0.60,-0.35,-0.24,-1.28
3.426,0.53,-1.01,-0.34,-0.35,-0.24,-1.28
3.426,0.53,-1.01,-0.34,-0.34,-0.26,-1.35
3.428,0.53,-1.01,-0.34,-0.33,-0.28,-1.44
3.43,1.74,-0.63,0.04,-0.33,-0.28,-1.44
3.431,1.74,-0.63,0.04,-0.32,-0.30,-1.52
3.432,1.74,-0.63,0.04,-0.30,-0.32,-1.59
3.434,2.41,-0.41,0.30,-0.30,-0.32,-1.59
3.434,2.41,-0.41,0.30,-0.29,-0.36,-1.67
3.436,2.41,-0.41,0.30,-0.27,-0.39,-1.73
3.438,2.30,-0.44,0.43,-0.27,-0.39,-1.73
3.438,2.30,-0.44,0.43,-0.26,-0.43,-1.80
3.44,2.30,-0.44,0.43,-0.25,-0.47,-1.85
3.442,2.14,-0.43,0.46,-0.25,-0.47,-1.85
3.442,2.14,-0.43,0.46,-0.24,-0.52,-1.90
3.444,2.14,-0.43,0.46,-0.23,-0.57,-1.95
3.446,2.14,-0.43,0.46,-0.23,-0.63,-1.98
3.446,1.97,-0.36,0.36,-0.23,-0.63,-1.98
3.448,1.97,-0.36,0.36,-0.23,-0.70,-2.01
3.451,1.66,-0.34,0.21,-0.23,-0.70,-2.01
3.451,1.66,-0.34,0.21,-0.23,-0.76,-2.02
3.452,1.66,-0.34,0.21,-0.24,-0.83,-2.03
3.454,1.32,-0.32,0.06,-0.24,-0.83,-2.03
3.454,1.32,-0.32,0.06,-0.24,-0.91,-2.03
3.456,1.32,-0.32,0.06,-0.25,-0.98,-2.03
3.458,1.06,-0.23,0.01,-0.25,-0.98,-2.03
3.459,1.06,-0.23,0.01,-0.26,-1.05,-2.03
3.46,1.06,-0.23,0.01,-0.28,-1.12,-2.01
3.462,0.93,-0.07,-0.13,-0.28,-1.12,-2.01
3.462,0.93,-0.07,-0.13,-0.29,-1.19,-2.00
3.464,0.93,-0.07,-0.13,-0.30,-1.25,-1.98
3.466,0.73,0.09,-0.20,-0.30,-1.25,-1.98
3.466,0.73,0.09,-0.20,-0.32,-1.32,-1.95
3.474,0.73,0.09,-0.20,-0.33,-1.37,-1.93
3.475,0.73,0.09,-0.20,-0.34,-1.42,-1.91
3.475,0.60,0.22,-0.23,-0.34,-1.42,-1.91
3.476,0.60,0.22,-0.23,-0.36,-1.46,-1.87
3.476,0.51,0.38,-0.26,-0.36,-1.46,-1.87
3.476,0.51,0.38,-0.26,-0.37,-1.49,-1.85
3.477,0.51,0.38,-0.26,-0.38,-1.52,-1.83
3.478,0.46,0.50,-0.28,-0.38,-1.52,-1.83
3.478,0.46,0.50,-0.28,-0.39,-1.54,-1.81
3.48,0.46,0.50,-0.28,-0.40,-1.55,-1.80
3.482,0.47,0.63,-0.25,-0.40,-1.55,-1.80
3.482,0.47,0.63,-0.25,-0.41,-1.57,-1.80
3.491,0.47,0.63,-0.25,-0.42,-1.57,-1.80
3.491,0.47,0.63,-0.25,-0.43,-1.58,-1.80
3.492,0.60,0.79,-0.29,-0.43,-1.58,-1.80
3.492,0.60,0.79,-0.29,-0.43,-1.57,-1.82
3.492,0.69,0.86,-0.36,-0.43,-1.57,-1.82
3.493,0.69,0.86,-0.36,-0.44,-1.56,-1.83
3.493,0.69,0.86,-0.36,-0.45,-1.55,-1.86
3.493,0.72,0.88,-0.38,-0.45,-1.55,-1.86
3.494,0.72,0.88,-0.38,-0.45,-1.54,-1.88
3.496,0.72,0.88,-0.38,-0.46,-1.52,-1.92
3.498,0.79,0.92,-0.41,-0.46,-1.52,-1.92
3.498,0.79,0.92,-0.41,-0.46,-1.50,-1.96
3.499,0.79,0.92,-0.41,-0.47,-1.48,-2.00
3.502,0.84,0.94,-0.40,-0.47,-1.48,-2.00
3.502,0.84,0.94,-0.40,-0.47,-1.46,-2.06
3.503,0.84,0.94,-0.40,-0.48,-1.44,-2.11
3.506,0.86,0.94,-0.41,-0.48,-1.44,-2.11
3.507,0.86,0.94,-0.41,-0.48,-1.43,-2.15
3.508,0.86,0.94,-0.41,-0.49,-1.41,-2.19
3.51,0.70,0.85,-0.47,-0.49,-1.41,-2.19
3.51,0.70,0.85,-0.47,-0.50,-1.40,-2.23
3.511,0.70,0.85,-0.47,-0.50,-1.39,-2.27
3.513,0.46,0.70,-0.55,-0.50,-1.39,-2.27
3.514,0.46,0.70,-0.55,-0.51,-1.39,-2.30
3.515,0.46,0.70,-0.55,-0.53,-1.39,-2.33
3.517,0.25,0.65,-0.62,-0.53,-1.39,-2.33
3.518,0.25,0.65,-0.62,-0.55,-1.40,-2.37
3.519,0.25,0.65,-0.62,-0.57,-1.41,-2.40
3.522,0.09,0.60,-0.74,-0.57,-1.41,-2.40
3.522,0.09,0.60,-0.74,-0.59,-1.44,-2.44
3.524,0.09,0.60,-0.74,-0.61,-1.47,-2.48
3.525,0.09,0.53,-0.85,-0.61,-1.47,-2.48
3.526,0.09,0.53,-0.85,-0.63,-1.51,-2.53
3.527,0.09,0.53,-0.85,-0.66,-1.55,-2.57
3.529,0.10,0.47,-0.96,-0.66,-1.55,-2.57
3.53,0.10,0.47,-0.96,-0.70,-1.59,-2.61
3.531,0.10,0.47,-0.96,-0.73,-1.64,-2.66
3.534,0.10,0.47,-0.96,-0.75,-1.68,-2.70
3.534,0.09,0.36,-1.09,-0.75,-1.68,-2.70
3.535,0.09,0.36,-1.09,-0.77,-1.72,-2.74
3.537,0.05,0.27,-1.05,-0.77,-1.72,-2.74
3.538,0.05,0.27,-1.05,-0.79,-1.76,-2.78
3.54,0.05,0.27,-1.05,-0.81,-1.79,-2.81
3.542,0.02,0.22,-0.92,-0.81,-1.79,-2.81
3.542,0.02,0.22,-0.92,-0.83,-1.82,-2.85
3.543,0.02,0.22,-0.92,-0.84,-1.86,-2.87
3.545,0.02,0.22,-0.92,-0.86,-1.89,-2.89
3.546,-0.11,0.08,-0.82,-0.86,-1.89,-2.89
3.547,-0.11,0.08,-0.82,-0.87,-1.94,-2.91
3.549,-0.24,-0.04,-0.85,-0.87,-1.94,-2.91
3.55,-0.24,-0.04,-0.85,-0.89,-1.99,-2.92
3.551,-0.24,-0.04,-0.85,-0.90,-2.04,-2.93
3.553,-0.24,-0.04,-0.85,-0.92,-2.10,-2.93
3.554,-0.36,-0.16,-0.90,-0.92,-2.10,-2.93
3.556,-0.36,-0.16,-0.90,-0.94,-2.16,-2.92
3.558,-0.46,-0.29,-0.94,-0.94,-2.16,-2.92
3.558,-0.46,-0.29,-0.94,-0.96,-2.23,-2.90
3.559,-0.46,-0.29,-0.94,-0.98,-2.30,-2.87
3.562,-0.72,-0.44,-0.99,-0.98,-2.30,-2.87
3.565,-0.72,-0.44,-0.99,-0.99,-2.37,-2.83
3.565,-0.72,-0.44,-0.99,-1.01,-2.44,-2.78
3.565,-0.93,-0.58,-1.04,-1.01,-2.44,-2.78
3.565,-0.93,-0.58,-1.04,-1.03,-2.52,-2.73
3.574,-0.93,-0.58,-1.04,-1.05,-2.59,-2.68
3.575,-0.93,-0.58,-1.04,-1.07,-2.66,-2.62
3.575,-1.02,-0.66,-1.08,-1.07,-2.66,-2.62
3.575,-1.02,-0.66,-1.08,-1.08,-2.72,-2.55
3.576,-0.89,-0.65,-0.98,-1.08,-2.72,-2.55
3.576,-0.89,-0.65,-0.98,-1.09,-2.78,-2.48
3.576,-0.89,-0.65,-0.98,-1.10,-2.83,-2.41
3.577,-0.89,-0.65,-0.98,-1.10,-2.88,-2.33
3.578,-1.06,-0.57,-0.84,-1.10,-2.88,-2.33
3.579,-1.06,-0.57,-0.84,-1.10,-2.92,-2.26
3.582,-1.12,-0.51,-0.60,-1.10,-2.92,-2.26
3.582,-1.12,-0.51,-0.60,-1.10,-2.96,-2.18
3.591,-1.12,-0.51,-0.60,-1.10,-2.99,-2.11
3.592,-0.87,-0.42,-0.40,-1.10,-2.99,-2.11
3.592,-0.87,-0.42,-0.40,-1.10,-3.02,-2.04
3.592,-0.87,-0.42,-0.40,-1.10,-3.05,-1.98
3.593,-0.69,-0.33,-0.28,-1.10,-3.05,-1.98
3.593,-0.69,-0.33,-0.28,-1.09,-3.09,-1.92
3.593,-0.69,-0.33,-0.28,-1.10,-3.12,-1.87
3.594,-0.69,-0.33,-0.28,-1.10,-3.15,-1.83
3.594,-0.47,-0.24,-0.25,-1.10,-3.15,-1.83
3.595,-0.47,-0.24,-0.25,-1.10,-3.19,-1.79
3.597,-0.10,-0.21,-0.20,-1.10,-3.19,-1.79
3.598,-0.10,-0.21,-0.20,-1.11,-3.22,-1.77
3.599,-0.10,-0.21,-0.20,-1.11,-3.27,-1.74
3.602,0.19,-0.15,-0.22,-1.11,-3.27,-1.74
3.602,0.19,-0.15,-0.22,-1.12,-3.31,-1.73
3.603,0.19,-0.15,-0.22,-1.13,-3.35,-1.72
3.605,0.47,-0.15,-0.23,-1.13,-3.35,-1.72
3.606,0.47,-0.15,-0.23,-1.15,-3.39,-1.71
3.607,0.47,-0.15,-0.23,-1.16,-3.43,-1.70
3.609,0.59,-0.19,-0.18,-1.16,-3.43,-1.70
3.61,0.59,-0.19,-0.18,-1.17,-3.47,-1.69
3.611,0.59,-0.19,-0.18,-1.18,-3.50,-1.69
3.613,0.59,-0.19,-0.18,-1.19,-3.52,-1.69
3.614,0.69,-0.31,-0.07,-1.19,-3.52,-1.69
3.615,0.69,-0.31,-0.07,-1.20,-3.55,-1.68
3.617,0.82,-0.40,0.10,-1.20,-3.55,-1.68
3.618,0.82,-0.40,0.10,-1.21,-3.57,-1.68
3.619,0.82,-0.40,0.10,-1.21,-3.57,-1.67
3.622,0.72,-0.54,0.33,-1.21,-3.57,-1.67
3.622,0.72,-0.54,0.33,-1.22,-3.58,-1.66
3.623,0.72,-0.54,0.33,-1.23,-3.58,-1.64
3.626,0.67,-0.63,0.55,-1.23,-3.58,-1.64
3.626,0.67,-0.63,0.55,-1.22,-3.57,-1.62
3.627,0.67,-0.63,0.55,-1.23,-3.55,-1.59
3.629,0.42,-0.73,0.79,-1.23,-3.55,-1.59
3.63,0.42,-0.73,0.79,-1.21,-3.52,-1.55
3.631,0.42,-0.73,0.79,-1.21,-3.49,-1.52
3.634,0.19,-0.77,1.08,-1.21,-3.49,-1.52
3.635,0.19,-0.77,1.08,-1.19,-3.45,-1.48
3.635,0.19,-0.77,1.08,-1.17,-3.39,-1.43
3.637,0.06,-0.79,1.41,-1.17,-3.39,-1.43
3.638,0.06,-0.79,1.41,-1.14,-3.33,-1.39
3.639,0.06,-0.79,1.41,-1.11,-3.26,-1.34
3.642,-0.13,-0.78,1.77,-1.11,-3.26,-1.34
3.642,-0.13,-0.78,1.77,-1.08,-3.19,-1.29
3.643,-0.13,-0.78,1.77,-1.03,-3.10,-1.22
3.645,-0.49,-0.94,2.07,-1.03,-3.10,-1.22
3.645,-0.49,-0.94,2.07,-0.99,-3.01,-1.16
3.647,-0.49,-0.94,2.07,-0.94,-2.92,-1.09
3.649,-0.69,-1.02,2.33,-0.94,-2.92,-1.09
3.649,-0.69,-1.02,2.33,-0.89,-2.81,-1.02
3.651,-0.69,-1.02,2.33,-0.84,-2.70,-0.95
3.653,-0.80,-1.01,2.49,-0.84,-2.70,-0.95
3.653,-0.80,-1.01,2.49,-0.78,-2.59,-0.88
3.655,-0.80,-1.01,2.49,-0.73,-2.48,-0.81
3.657,-0.81,-0.91,2.61,-0.73,-2.48,-0.81
3.658,-0.81,-0.91,2.61,-0.67,-2.36,-0.75
3.659,-0.81,-0.91,2.61,-0.62,-2.24,-0.69
3.661,-0.81,-0.91,2.61,-0.56,-2.12,-0.63
3.662,-0.71,-0.77,2.61,-0.56,-2.12,-0.63
3.663,-0.71,-0.77,2.61,-0.51,-1.99,-0.58
3.665,-0.71,-0.77,2.61,-0.47,-1.87,-0.54
3.665,-0.61,-0.57,2.49,-0.47,-1.87,-0.54
3.673,-0.61,-0.57,2.49,-0.42,-1.75,-0.49
3.674,-0.61,-0.57,2.49,-0.38,-1.63,-0.45
3.675,-0.38,-0.37,2.27,-0.38,-1.63,-0.45
3.675,-0.38,-0.37,2.27,-0.34,-1.52,-0.42
3.675,-0.20,-0.23,2.03,-0.34,-1.52,-0.42
3.675,-0.20,-0.23,2.03,-0.30,-1.40,-0.39
3.676,-0.20,-0.23,2.03,-0.27,-1.29,-0.36
3.677,-0.06,-0.10,1.75,-0.27,-1.29,-0.36
3.677,-0.06,-0.10,1.75,-0.23,-1.19,-0.33
3.679,-0.06,-0.10,1.75,-0.20,-1.08,-0.30
3.681,0.08,0.00,1.46,-0.20,-1.08,-0.30
3.682,0.08,0.00,1.46,-0.17,-0.98,-0.28
3.683,0.08,0.00,1.46,-0.15,-0.88,-0.25
3.69,0.12,0.04,1.17,-0.15,-0.88,-0.25
3.691,0.12,0.04,1.17,-0.12,-0.78,-0.22
3.691,0.12,0.04,1.17,-0.10,-0.69,-0.20
3.691,0.09,0.08,0.96,-0.10,-0.69,-0.20
3.692,0.09,0.08,0.96,-0.08,-0.60,-0.17
3.692,0.09,0.08,0.96,-0.06,-0.52,-0.15
3.693,0.09,0.08,0.96,-0.05,-0.45,-0.13
3.693,0.14,0.11,0.62,-0.05,-0.45,-0.13
3.696,0.14,0.11,0.62,-0.04,-0.38,-0.10
3.697,0.15,0.14,0.28,-0.04,-0.38,-0.10
3.698,0.15,0.14,0.28,-0.03,-0.32,-0.09
3.699,0.15,0.14,0.28,-0.04,-0.27,-0.07
3.701,0.24,0.23,-0.05,-0.04,-0.27,-0.07
3.701,0.24,0.23,-0.05,-0.03,-0.22,-0.06
3.703,0.24,0.23,-0.05,-0.04,-0.18,-0.06
3.705,0.31,0.29,-0.30,-0.04,-0.18,-0.06
3.705,0.31,0.29,-0.30,-0.04,-0.15,-0.05
3.707,0.31,0.29,-0.30,-0.05,-0.11,-0.05
3.709,0.32,0.36,-0.53,-0.05,-0.11,-0.05
3.709,0.32,0.36,-0.53,-0.05,-0.08,-0.05
3.711,0.32,0.36,-0.53,-0.05,-0.05,-0.04
3.713,0.21,0.30,-0.55,-0.05,-0.05,-0.04
3.713,0.21,0.30,-0.55,-0.06,-0.01,-0.03
3.715,0.21,0.30,-0.55,-0.05,0.03,-0.02
3.717,0.02,0.22,-0.51,-0.05,0.03,-0.02
3.717,0.02,0.22,-0.51,-0.05,0.06,-0.00
3.719,0.02,0.22,-0.51,-0.04,0.10,0.01
3.721,-0.15,0.16,-0.38,-0.04,0.10,0.01
3.722,-0.15,0.16,-0.38,-0.04,0.13,0.03
3.723,-0.15,0.16,-0.38,-0.02,0.17,0.04
3.725,-0.24,0.03,-0.27,-0.02,0.17,0.04
3.726,-0.24,0.03,-0.27,-0.01,0.21,0.06
3.727,-0.24,0.03,-0.27,0.00,0.25,0.08
3.729,-0.33,-0.06,-0.10,0.00,0.25,0.08
3.729,-0.33,-0.06,-0.10,0.02,0.29,0.10
3.731,-0.33,-0.06,-0.10,0.03,0.33,0.12
3.733,-0.34,-0.14,0.08,0.03,0.33,0.12
3.733,-0.34,-0.14,0.08,0.05,0.37,0.13
3.735,-0.34,-0.14,0.08,0.07,0.41,0.15
3.737,-0.34,-0.14,0.08,0.09,0.46,0.17
3.737,-0.20,-0.20,0.19,0.09,0.46,0.17
3.739,-0.20,-0.20,0.19,0.11,0.51,0.19
3.741,-0.12,-0.23,0.38,0.11,0.51,0.19
3.742,-0.12,-0.23,0.38,0.14,0.57,0.21
3.743,-0.12,-0.23,0.38,0.17,0.63,0.22
3.745,-0.12,-0.23,0.38,0.20,0.70,0.24
3.745,-0.09,-0.22,0.60,0.20,0.70,0.24
3.747,-0.09,-0.22,0.60,0.23,0.76,0.26
3.749,-0.00,-0.21,0.78,0.23,0.76,0.26
3.749,-0.00,-0.21,0.78,0.27,0.83,0.28
3.758,-0.00,-0.21,0.78,0.30,0.91,0.30
3.759,0.03,-0.19,0.93,0.30,0.91,0.30
3.759,0.03,-0.19,0.93,0.34,0.99,0.33
3.759,0.03,-0.19,0.93,0.39,1.07,0.35
3.76,0.05,-0.15,1.11,0.39,1.07,0.35
3.76,0.05,-0.15,1.11,0.43,1.15,0.37
3.76,0.05,-0.15,1.11,0.48,1.23,0.40
3.761,0.11,-0.07,1.22,0.48,1.23,0.40
3.762,0.11,-0.07,1.22,0.52,1.32,0.42
3.763,0.11,-0.07,1.22,0.57,1.40,0.45
3.765,0.15,-0.00,1.30,0.57,1.40,0.45
3.765,0.15,-0.00,1.30,0.62,1.49,0.48
3.776,0.15,-0.00,1.30,0.66,1.56,0.50
3.777,0.15,-0.00,1.30,0.71,1.64,0.53
3.777,0.18,0.03,1.31,0.71,1.64,0.53
3.777,0.18,0.03,1.31,0.75,1.72,0.56
3.777,0.25,0.03,1.29,0.75,1.72,0.56
3.778,0.25,0.03,1.29,0.79,1.80,0.59
3.778,0.25,0.03,1.29,0.84,1.88,0.62
3.779,0.27,0.02,1.27,0.84,1.88,0.62
3.779,0.27,0.02,1.27,0.88,1.96,0.66
3.779,0.27,0.02,1.27,0.92,2.04,0.69
3.781,0.27,0.01,1.29,0.92,2.04,0.69
3.782,0.27,0.01,1.29,0.96,2.13,0.72
3.783,0.27,0.01,1.29,1.01,2.21,0.76
3.785,0.27,0.01,1.29,1.05,2.30,0.79
3.785,0.28,-0.03,1.30,1.05,2.30,0.79
3.787,0.28,-0.03,1.30,1.09,2.39,0.83
3.789,0.29,-0.07,1.30,1.09,2.39,0.83
3.789,0.29,-0.07,1.30,1.12,2.48,0.87
3.791,0.29,-0.07,1.30,1.16,2.58,0.91
3.793,0.33,-0.13,1.29,1.16,2.58,0.91
3.793,0.33,-0.13,1.29,1.20,2.67,0.94
3.795,0.33,-0.13,1.29,1.23,2.77,0.98
3.797,0.33,-0.13,1.29,1.27,2.86,1.01
3.797,0.38,-0.12,1.25,1.27,2.86,1.01
3.798,0.38,-0.12,1.25,1.29,2.95,1.05
3.801,0.42,-0.12,1.18,1.29,2.95,1.05
3.801,0.42,-0.12,1.18,1.31,3.03,1.09
3.803,0.42,-0.12,1.18,1.34,3.12,1.12
3.805,0.46,-0.13,1.04,1.34,3.12,1.12
3.805,0.46,-0.13,1.04,1.35,3.20,1.15
3.807,0.46,-0.13,1.04,1.36,3.28,1.18
3.809,0.55,-0.15,0.91,1.36,3.28,1.18
3.809,0.55,-0.15,0.91,1.37,3.35,1.21
3.81,0.55,-0.15,0.91,1.38,3.42,1.24
3.812,0.55,-0.15,0.91,1.38,3.49,1.26
3.813,0.63,-0.13,0.78,1.38,3.49,1.26
3.814,0.63,-0.13,0.78,1.38,3.54,1.29
3.817,0.73,-0.12,0.66,1.38,3.54,1.29
3.818,0.73,-0.12,0.66,1.38,3.60,1.31
3.818,0.73,-0.12,0.66,1.37,3.65,1.33
3.821,0.80,-0.11,0.53,1.37,3.65,1.33
3.821,0.80,-0.11,0.53,1.36,3.69,1.34
3.823,0.80,-0.11,0.53,1.35,3.73,1.36
3.825,0.88,-0.13,0.40,1.35,3.73,1.36
3.826,0.88,-0.13,0.40,1.34,3.76,1.37
3.826,0.88,-0.13,0.40,1.33,3.78,1.39
3.829,0.88,-0.13,0.40,1.31,3.79,1.39
3.83,0.96,-0.13,0.26,1.31,3.79,1.39
3.83,0.96,-0.13,0.26,1.29,3.79,1.40
3.832,1.02,-0.13,0.10,1.29,3.79,1.40
3.833,1.02,-0.13,0.10,1.27,3.79,1.40
3.834,1.02,-0.13,0.10,1.25,3.78,1.40
3.836,1.06,-0.15,-0.05,1.25,3.78,1.40
3.837,1.06,-0.15,-0.05,1.23,3.75,1.41
3.838,1.06,-0.15,-0.05,1.21,3.72,1.41
3.841,1.07,-0.19,-0.19,1.21,3.72,1.41
3.842,1.07,-0.19,-0.19,1.19,3.68,1.41
3.842,1.07,-0.19,-0.19,1.16,3.63,1.40
3.844,1.05,-0.21,-0.33,1.16,3.63,1.40
3.845,1.05,-0.21,-0.33,1.14,3.57,1.40
3.846,1.05,-0.21,-0.33,1.11,3.50,1.39
3.848,1.02,-0.23,-0.56,1.11,3.50,1.39
3.849,1.02,-0.23,-0.56,1.08,3.41,1.39
3.857,1.02,-0.23,-0.56,1.04,3.30,1.38
3.858,1.00,-0.22,-1.09,1.04,3.30,1.38
3.858,1.00,-0.22,-1.09,1.00,3.18,1.37
3.859,1.00,-0.22,-1.09,0.95,3.06,1.36
3.859,0.93,-0.20,-1.67,0.95,3.06,1.36
3.859,0.93,-0.20,-1.67,0.91,2.92,1.34
3.86,0.93,-0.20,-1.67,0.86,2.78,1.33
3.861,0.82,-0.18,-2.04,0.86,2.78,1.33
3.861,0.82,-0.18,-2.04,0.81,2.64,1.32
3.862,0.82,-0.18,-2.04,0.76,2.49,1.30
3.864,0.71,-0.16,-2.14,0.76,2.49,1.30
3.865,0.71,-0.16,-2.14,0.72,2.35,1.29
3.866,0.71,-0.16,-2.14,0.68,2.21,1.27
3.875,0.71,-0.16,-2.14,0.64,2.06,1.26
3.876,0.62,-0.14,-2.06,0.64,2.06,1.26
3.876,0.62,-0.14,-2.06,0.60,1.93,1.24
3.876,0.49,-0.14,-1.87,0.60,1.93,1.24
3.877,0.49,-0.14,-1.87,0.57,1.80,1.23
3.877,0.49,-0.14,-1.87,0.53,1.68,1.21
3.877,0.40,-0.15,-1.68,0.53,1.68,1.21
3.878,0.40,-0.15,-1.68,0.51,1.55,1.20
3.878,0.40,-0.15,-1.68,0.48,1.43,1.18
3.881,0.23,-0.17,-1.52,0.48,1.43,1.18
3.881,0.23,-0.17,-1.52,0.46,1.31,1.17
3.883,0.23,-0.17,-1.52,0.43,1.20,1.15
3.885,0.12,-0.19,-1.43,0.43,1.20,1.15
3.885,0.12,-0.19,-1.43,0.41,1.09,1.13
3.886,0.12,-0.19,-1.43,0.39,0.99,1.12
3.889,0.01,-0.21,-1.38,0.39,0.99,1.12
3.889,0.01,-0.21,-1.38,0.37,0.88,1.10
3.891,0.01,-0.21,-1.38,0.35,0.79,1.09
3.893,-0.06,-0.23,-1.33,0.35,0.79,1.09
3.893,-0.06,-0.23,-1.33,0.33,0.69,1.07
3.894,-0.06,-0.23,-1.33,0.31,0.60,1.05
3.896,-0.06,-0.23,-1.33,0.29,0.52,1.03
3.897,-0.07,-0.24,-1.29,0.29,0.52,1.03
3.898,-0.07,-0.24,-1.29,0.27,0.43,1.00
3.901,-0.10,-0.19,-1.29,0.27,0.43,1.00
3.902,-0.10,-0.19,-1.29,0.25,0.35,0.98
3.903,-0.10,-0.19,-1.29,0.23,0.27,0.96
3.905,-0.15,-0.14,-1.27,0.23,0.27,0.96
3.905,-0.15,-0.14,-1.27,0.22,0.20,0.93
3.907,-0.15,-0.14,-1.27,0.20,0.14,0.91
3.909,-0.22,-0.12,-1.23,0.20,0.14,0.91
3.909,-0.22,-0.12,-1.23,0.18,0.08,0.88
3.91,-0.22,-0.12,-1.23,0.16,0.03,0.86
3.912,-0.22,-0.12,-1.23,0.14,-0.00,0.83
3.912,-0.24,-0.11,-1.13,0.14,-0.00,0.83
3.914,-0.24,-0.11,-1.13,0.12,-0.05,0.80
3.916,-0.30,-0.05,-1.07,0.12,-0.05,0.80
3.916,-0.30,-0.05,-1.07,0.10,-0.08,0.78
3.918,-0.30,-0.05,-1.07,0.09,-0.11,0.75
3.921,-0.37,-0.02,-0.97,0.09,-0.11,0.75
3.921,-0.37,-0.02,-0.97,0.07,-0.13,0.72
3.922,-0.37,-0.02,-0.97,0.05,-0.15,0.69
3.925,-0.46,0.07,-0.89,0.05,-0.15,0.69
3.925,-0.46,0.07,-0.89,0.04,-0.16,0.66
3.926,-0.46,0.07,-0.89,0.02,-0.17,0.63
3.928,-0.46,0.07,-0.89,0.00,-0.18,0.61
3.928,-0.53,0.13,-0.80,0.00,-0.18,0.61
3.93,-0.53,0.13,-0.80,-0.01,-0.18,0.57
3.932,-0.60,0.17,-0.69,-0.01,-0.18,0.57
3.933,-0.60,0.17,-0.69,-0.03,-0.17,0.55
3.934,-0.60,0.17,-0.69,-0.04,-0.17,0.52
3.936,-0.70,0.20,-0.58,-0.04,-0.17,0.52
3.937,-0.70,0.20,-0.58,-0.05,-0.15,0.49
3.938,-0.70,0.20,-0.58,-0.06,-0.14,0.46
3.941,-0.78,0.24,-0.47,-0.06,-0.14,0.46
3.941,-0.78,0.24,-0.47,-0.07,-0.13,0.43
3.942,-0.78,0.24,-0.47,-0.08,-0.11,0.40
3.944,-0.87,0.29,-0.40,-0.08,-0.11,0.40
3.945,-0.87,0.29,-0.40,-0.09,-0.10,0.37
3.946,-0.87,0.29,-0.40,-0.10,-0.08,0.35
3.948,-0.97,0.34,-0.31,-0.10,-0.08,0.35
3.949,-0.97,0.34,-0.31,-0.11,-0.06,0.32
3.957,-0.97,0.34,-0.31,-0.12,-0.04,0.29
3.958,-1.06,0.35,-0.23,-0.12,-0.04,0.29
3.959,-1.06,0.35,-0.23,-0.13,-0.02,0.27
3.959,-1.06,0.35,-0.23,-0.13,0.00,0.25
3.959,-1.17,0.36,-0.16,-0.13,0.00,0.25
3.96,-1.17,0.36,-0.16,-0.14,0.03,0.22
3.96,-1.17,0.36,-0.16,-0.14,0.05,0.20
3.96,-1.24,0.37,-0.11,-0.14,0.05,0.20
3.963,-1.24,0.37,-0.11,-0.14,0.06,0.18
3.963,-1.24,0.37,-0.11,-0.15,0.07,0.16
3.964,-1.33,0.38,-0.05,-0.15,0.07,0.16
3.965,-1.33,0.38,-0.05,-0.15,0.09,0.14
3.966,-1.33,0.38,-0.05,-0.15,0.10,0.12
3.974,-1.40,0.36,0.01,-0.15,0.10,0.12
3.975,-1.40,0.36,0.01,-0.15,0.11,0.10
3.975,-1.40,0.36,0.01,-0.15,0.11,0.08
3.975,-1.45,0.31,0.06,-0.15,0.11,0.08
3.975,-1.45,0.31,0.06,-0.15,0.12,0.06
3.976,-1.45,0.31,0.06,-0.15,0.12,0.04
3.976,-1.47,0.28,0.12,-0.15,0.12,0.04
3.976,-1.47,0.28,0.12,-0.15,0.12,0.02
3.978,-1.47,0.28,0.12,-0.14,0.11,0.01
3.98,-1.41,0.20,0.18,-0.14,0.11,0.01
3.982,-1.41,0.20,0.18,-0.14,0.10,-0.00
3.985,-1.33,0.08,0.21,-0.14,0.10,-0.00
3.987,-1.33,0.08,0.21,-0.13,0.08,-0.01
3.987,-1.33,0.08,0.21,-0.13,0.06,-0.01
3.988,-1.33,0.08,0.21,-0.13,0.04,0.00
3.989,-1.26,0.01,0.25,-0.13,0.04,0.00
3.99,-1.26,0.01,0.25,-0.12,0.02,0.02
3.991,-1.26,0.01,0.25,-0.12,0.00,0.03
3.992,-1.18,-0.01,0.26,-0.12,0.00,0.03
3.993,-1.18,-0.01,0.26,-0.11,-0.02,0.04
3.994,-1.18,-0.01,0.26,-0.10,-0.03,0.06
3.996,-1.00,-0.03,0.27,-0.10,-0.03,0.06
3.996,-1.00,-0.03,0.27,-0.10,-0.05,0.08
3.998,-1.00,-0.03,0.27,-0.09,-0.06,0.10
4.0,-0.75,-0.05,0.30,-0.09,-0.06,0.10
4.001,-0.75,-0.05,0.30,-0.09,-0.07,0.11
4.002,-0.75,-0.05,0.30,-0.08,-0.08,0.12
4.004,-0.45,-0.10,0.27,-0.08,-0.08,0.12
4.004,-0.45,-0.10,0.27,-0.08,-0.09,0.13
4.006,-0.45,-0.10,0.27,-0.08,-0.10,0.14
4.008,-0.13,-0.10,0.23,-0.08,-0.10,0.14
4.008,-0.13,-0.10,0.23,-0.07,-0.10,0.14
4.01,-0.13,-0.10,0.23,-0.07,-0.11,0.14
4.012,-0.13,-0.10,0.23,-0.06,-0.11,0.14
4.012,0.19,-0.09,0.21,-0.06,-0.11,0.14
4.014,0.19,-0.09,0.21,-0.06,-0.12,0.13
4.016,0.19,-0.09,0.21,-0.06,-0.12,0.13
4.016,0.47,-0.08,0.17,-0.06,-0.12,0.13
4.018,0.47,-0.08,0.17,-0.05,-0.13,0.12
4.02,0.66,-0.08,0.11,-0.05,-0.13,0.12
4.021,0.66,-0.08,0.11,-0.04,-0.13,0.11
4.022,0.66,-0.08,0.11,-0.04,-0.13,0.11
4.024,0.80,-0.05,0.03,-0.04,-0.13,0.11
4.025,0.80,-0.05,0.03,-0.04,-0.13,0.09
4.026,0.80,-0.05,0.03,-0.03,-0.13,0.09
4.028,0.87,-0.06,-0.02,-0.03,-0.13,0.09
4.028,0.87,-0.06,-0.02,-0.03,-0.13,0.08
4.03,0.87,-0.06,-0.02,-0.03,-0.14,0.07
4.032,0.90,-0.08,-0.10,-0.03,-0.14,0.07
4.032,0.90,-0.08,-0.10,-0.02,-0.13,0.06
4.034,0.90,-0.08,-0.10,-0.02,-0.13,0.06
4.036,0.90,-0.12,-0.15,-0.02,-0.13,0.06
4.036,0.90,-0.12,-0.15,-0.01,-0.13,0.05
4.038,0.90,-0.12,-0.15,-0.01,-0.13,0.05
4.04,0.86,-0.16,-0.21,-0.01,-0.13,0.05
4.041,0.86,-0.16,-0.21,-0.01,-0.13,0.04
4.042,0.86,-0.16,-0.21,-0.01,-0.13,0.04
4.044,0.86,-0.16,-0.21,-0.01,-0.13,0.04
4.044,0.82,-0.21,-0.27,-0.01,-0.13,0.04
4.046,0.82,-0.21,-0.27,-0.01,-0.12,0.04
4.048,0.80,-0.24,-0.30,-0.01,-0.12,0.04
4.048,0.80,-0.24,-0.30,-0.01,-0.12,0.03
4.05,0.80,-0.24,-0.30,-0.01,-0.12,0.04
4.052,0.76,-0.28,-0.30,-0.01,-0.12,0.04
4.052,0.76,-0.28,-0.30,-0.01,-0.12,0.03
4.054,0.76,-0.28,-0.30,-0.00,-0.11,0.04
4.056,0.74,-0.29,-0.31,-0.00,-0.11,0.04
4.057,0.74,-0.29,-0.31,-0.00,-0.11,0.03
4.058,0.74,-0.29,-0.31,-0.00,-0.10,0.03
4.06,0.70,-0.29,-0.26,-0.00,-0.10,0.03
4.06,0.70,-0.29,-0.26,-0.00,-0.09,0.03
4.061,0.70,-0.29,-0.26,-0.00,-0.08,0.03
4.064,0.70,-0.29,-0.26,0.00,-0.07,0.02
4.064,0.68,-0.26,-0.22,0.00,-0.07,0.02
