
time,ax,ay,az,wx,wy,wz
0.003,-0.30,0.16,-0.48,-0.32,0.01,-0.16
0.004,-0.30,0.16,-0.48,-0.35,0.02,-0.15
0.004,-0.30,0.16,-0.48,-0.38,0.02,-0.15
0.004,-0.30,0.16,-0.48,-0.39,0.03,-0.14
0.004,-0.16,0.23,-0.24,-0.39,0.03,-0.14
0.004,-0.16,0.23,-0.24,-0.41,0.03,-0.14
0.004,-0.07,0.27,0.01,-0.41,0.03,-0.14
0.005,-0.07,0.27,0.01,-0.41,0.03,-0.14
0.005,-0.07,0.27,0.01,-0.42,0.03,-0.14
0.005,-0.00,0.32,0.21,-0.42,0.03,-0.14
0.005,-0.00,0.32,0.21,-0.42,0.04,-0.14
0.01,0.04,0.31,0.38,-0.42,0.04,-0.14
0.01,0.04,0.31,0.38,-0.41,0.04,-0.14
0.016,0.04,0.31,0.38,-0.40,0.04,-0.15
0.017,0.04,0.31,0.38,-0.39,0.05,-0.15
0.017,0.09,0.30,0.50,-0.39,0.05,-0.15
0.017,0.09,0.30,0.50,-0.38,0.06,-0.16
0.017,0.13,0.24,0.45,-0.38,0.06,-0.16
0.024,0.13,0.21,0.36,-0.38,0.06,-0.16
0.024,0.13,0.21,0.36,-0.38,0.07,-0.16
0.024,0.13,0.21,0.36,-0.37,0.07,-0.17
0.025,0.13,0.21,0.36,-0.36,0.07,-0.17
0.025,0.13,0.21,0.36,-0.35,0.06,-0.18
0.026,0.05,0.20,0.31,-0.35,0.06,-0.18
0.029,-0.06,0.27,0.24,-0.35,0.06,-0.18
0.029,-0.06,0.27,0.24,-0.35,0.05,-0.18
0.035,-0.06,0.27,0.24,-0.34,0.04,-0.18
0.035,-0.06,0.27,0.24,-0.34,0.03,-0.19
0.037,-0.19,0.35,0.20,-0.34,0.03,-0.19
0.037,-0.28,0.46,0.14,-0.34,0.03,-0.19
0.037,-0.28,0.46,0.14,-0.34,0.03,-0.19
0.041,-0.28,0.46,0.14,-0.34,0.02,-0.20
0.042,-0.41,0.51,0.05,-0.34,0.02,-0.20
0.042,-0.41,0.51,0.05,-0.34,0.03,-0.20
0.045,-0.41,0.51,0.05,-0.35,0.03,-0.21
0.045,-0.43,0.52,-0.02,-0.35,0.03,-0.21
0.046,-0.43,0.52,-0.02,-0.35,0.04,-0.22
0.049,-0.40,0.52,-0.09,-0.35,0.04,-0.22
0.049,-0.40,0.52,-0.09,-0.37,0.06,-0.23
0.054,-0.40,0.52,-0.09,-0.38,0.07,-0.23
0.054,-0.37,0.52,-0.16,-0.38,0.07,-0.23
0.055,-0.37,0.52,-0.16,-0.39,0.08,-0.24
0.057,-0.31,0.46,-0.22,-0.39,0.08,-0.24
0.057,-0.31,0.46,-0.22,-0.42,0.08,-0.25
0.062,-0.31,0.46,-0.22,-0.44,0.09,-0.26
0.062,-0.31,0.46,-0.22,-0.46,0.10,-0.27
0.062,-0.23,0.37,-0.30,-0.46,0.10,-0.27
0.065,-0.23,0.37,-0.30,-0.49,0.11,-0.27
0.066,-0.13,0.26,-0.34,-0.49,0.11,-0.27
0.066,-0.13,0.26,-0.34,-0.51,0.13,-0.28
0.07,-0.11,0.24,-0.32,-0.51,0.13,-0.28
0.07,-0.11,0.24,-0.32,-0.52,0.14,-0.28
0.073,-0.10,0.25,-0.26,-0.52,0.14,-0.28
0.073,-0.10,0.25,-0.26,-0.54,0.16,-0.29
0.074,-0.10,0.25,-0.26,-0.56,0.17,-0.29
0.077,-0.10,0.25,-0.26,-0.57,0.18,-0.29
0.077,-0.12,0.27,-0.17,-0.57,0.18,-0.29
0.082,-0.12,0.27,-0.17,-0.58,0.19,-0.28
0.082,-0.12,0.27,-0.17,-0.58,0.20,-0.28
0.083,-0.11,0.28,-0.10,-0.58,0.20,-0.28
0.085,-0.11,0.28,-0.10,-0.59,0.21,-0.28
0.085,-0.15,0.31,0.03,-0.59,0.21,-0.28
0.085,-0.15,0.31,0.03,-0.59,0.22,-0.27
0.089,-0.22,0.32,0.11,-0.59,0.22,-0.27
0.089,-0.22,0.32,0.11,-0.58,0.22,-0.26
0.094,-0.21,0.36,0.15,-0.58,0.22,-0.26
0.094,-0.21,0.36,0.15,-0.58,0.22,-0.26
0.095,-0.21,0.36,0.15,-0.57,0.22,-0.26
0.098,-0.20,0.38,0.15,-0.57,0.22,-0.26
0.099,-0.20,0.38,0.15,-0.57,0.22,-0.25
0.104,-0.22,0.40,0.16,-0.57,0.22,-0.25
0.105,-0.22,0.40,0.16,-0.56,0.23,-0.25
0.105,-0.22,0.40,0.16,-0.55,0.23,-0.24
0.107,-0.22,0.40,0.16,-0.54,0.23,-0.24
0.107,-0.22,0.35,0.16,-0.54,0.23,-0.24
0.107,-0.22,0.35,0.16,-0.54,0.23,-0.24
0.11,-0.26,0.29,0.12,-0.54,0.23,-0.24
0.111,-0.26,0.29,0.12,-0.54,0.23,-0.23
0.115,-0.26,0.29,0.12,-0.53,0.23,-0.22
0.115,-0.34,0.23,0.05,-0.53,0.23,-0.22
0.116,-0.37,0.14,-0.03,-0.53,0.23,-0.22
0.12,-0.37,0.14,-0.03,-0.53,0.24,-0.22
0.12,-0.37,0.14,-0.03,-0.53,0.24,-0.21
0.121,-0.40,0.05,-0.11,-0.53,0.24,-0.21
0.121,-0.40,0.05,-0.11,-0.53,0.24,-0.20
0.125,-0.40,0.05,-0.11,-0.53,0.25,-0.19
0.126,-0.42,-0.03,-0.11,-0.53,0.25,-0.19
0.126,-0.42,-0.03,-0.11,-0.54,0.25,-0.17
0.128,-0.42,-0.03,-0.11,-0.54,0.25,-0.16
0.128,-0.36,-0.11,-0.11,-0.54,0.25,-0.16
0.132,-0.36,-0.11,-0.11,-0.55,0.25,-0.15
0.132,-0.36,-0.11,-0.11,-0.56,0.25,-0.13
0.132,-0.40,-0.17,-0.10,-0.56,0.25,-0.13
0.137,-0.40,-0.17,-0.10,-0.56,0.25,-0.12
0.138,-0.40,-0.17,-0.10,-0.57,0.25,-0.11
0.138,-0.41,-0.18,-0.08,-0.57,0.25,-0.11
0.141,-0.45,-0.16,-0.06,-0.57,0.25,-0.11
0.141,-0.45,-0.16,-0.06,-0.57,0.25,-0.10
0.144,-0.45,-0.16,-0.06,-0.58,0.26,-0.09
0.144,-0.45,-0.16,-0.06,-0.58,0.27,-0.07
0.175,-0.51,-0.16,-0.01,-0.58,0.27,-0.07
0.175,-0.51,-0.16,-0.01,-0.59,0.27,-0.06
0.176,-0.48,-0.11,0.03,-0.59,0.27,-0.06
0.176,-0.48,-0.11,0.03,-0.59,0.28,-0.05
0.176,-0.39,-0.06,0.06,-0.59,0.28,-0.05
0.176,-0.39,-0.06,0.06,-0.59,0.28,-0.05
0.176,-0.39,-0.06,0.06,-0.59,0.28,-0.04
0.177,-0.32,-0.00,0.13,-0.59,0.28,-0.04
0.177,-0.32,-0.00,0.13,-0.58,0.29,-0.03
0.177,-0.32,-0.00,0.13,-0.58,0.28,-0.02
0.179,-0.24,0.03,0.21,-0.58,0.28,-0.02
0.18,-0.24,0.03,0.21,-0.57,0.28,-0.01
0.18,-0.24,0.03,0.21,-0.56,0.27,-0.01
0.18,-0.13,0.05,0.26,-0.56,0.27,-0.01
0.18,-0.13,0.05,0.26,-0.55,0.26,-0.01
0.18,-0.02,0.13,0.26,-0.55,0.26,-0.01
0.18,-0.02,0.13,0.26,-0.55,0.25,-0.01
0.181,0.10,0.15,0.28,-0.55,0.25,-0.01
0.181,0.10,0.15,0.28,-0.53,0.25,-0.00
0.181,0.10,0.15,0.28,-0.52,0.25,-0.00
0.181,0.15,0.23,0.38,-0.52,0.25,-0.00
0.181,0.15,0.23,0.38,-0.50,0.24,0.00
0.181,0.15,0.23,0.38,-0.48,0.23,0.00
0.181,0.19,0.30,0.43,-0.48,0.23,0.00
0.184,0.19,0.30,0.43,-0.46,0.23,0.00
0.184,0.24,0.32,0.48,-0.46,0.23,0.00
0.184,0.24,0.32,0.48,-0.43,0.21,0.00
0.187,0.24,0.32,0.48,-0.41,0.19,-0.00
0.187,0.27,0.30,0.50,-0.41,0.19,-0.00
0.191,0.27,0.30,0.50,-0.39,0.17,-0.00
0.191,0.26,0.28,0.46,-0.39,0.17,-0.00
0.191,0.26,0.28,0.46,-0.37,0.16,-0.01
0.196,0.26,0.28,0.46,-0.34,0.15,-0.01
0.196,0.29,0.25,0.41,-0.34,0.15,-0.01
0.196,0.29,0.25,0.41,-0.32,0.13,-0.01
0.2,0.24,0.23,0.39,-0.32,0.13,-0.01
0.2,0.24,0.23,0.39,-0.30,0.12,-0.01
0.203,0.24,0.23,0.39,-0.27,0.11,-0.01
0.203,0.21,0.18,0.35,-0.27,0.11,-0.01
0.204,0.21,0.18,0.35,-0.25,0.09,-0.01
0.207,0.21,0.18,0.35,-0.23,0.07,-0.02
0.207,0.18,0.10,0.30,-0.23,0.07,-0.02
0.211,0.18,0.10,0.30,-0.21,0.05,-0.02
0.211,0.18,0.03,0.26,-0.21,0.05,-0.02
0.212,0.18,0.03,0.26,-0.19,0.03,-0.02
0.216,0.18,0.03,0.26,-0.17,0.01,-0.02
0.216,0.18,0.03,0.26,-0.15,-0.02,-0.02
0.216,0.23,-0.05,0.21,-0.15,-0.02,-0.02
0.22,0.23,-0.05,0.21,-0.14,-0.05,-0.02
0.221,0.32,-0.10,0.14,-0.14,-0.05,-0.02
0.223,0.32,-0.10,0.14,-0.13,-0.07,-0.03
0.224,0.40,-0.12,0.06,-0.13,-0.07,-0.03
0.224,0.40,-0.12,0.06,-0.11,-0.09,-0.03
0.227,0.40,-0.12,0.06,-0.11,-0.10,-0.03
0.228,0.42,-0.13,-0.01,-0.11,-0.10,-0.03
0.231,0.42,-0.13,-0.01,-0.10,-0.12,-0.03
0.231,0.42,-0.13,-0.01,-0.09,-0.13,-0.03
0.232,0.41,-0.20,-0.06,-0.09,-0.13,-0.03
0.236,0.41,-0.20,-0.06,-0.09,-0.14,-0.03
0.237,0.37,-0.19,-0.13,-0.09,-0.14,-0.03
0.237,0.37,-0.19,-0.13,-0.09,-0.14,-0.03
0.241,0.43,-0.24,-0.19,-0.09,-0.14,-0.03
0.242,0.43,-0.24,-0.19,-0.09,-0.15,-0.03
0.245,0.51,-0.24,-0.24,-0.09,-0.15,-0.03
0.245,0.51,-0.24,-0.24,-0.10,-0.15,-0.03
0.245,0.51,-0.24,-0.24,-0.11,-0.15,-0.04
0.247,0.51,-0.24,-0.24,-0.12,-0.15,-0.05
0.248,0.52,-0.26,-0.27,-0.12,-0.15,-0.05
0.251,0.52,-0.26,-0.27,-0.13,-0.15,-0.05
0.253,0.52,-0.26,-0.27,-0.15,-0.16,-0.06
0.254,0.57,-0.25,-0.22,-0.15,-0.16,-0.06
0.256,0.57,-0.25,-0.22,-0.16,-0.15,-0.07
0.256,0.57,-0.25,-0.22,-0.18,-0.15,-0.08
0.257,0.58,-0.27,-0.22,-0.18,-0.15,-0.08
0.261,0.58,-0.27,-0.22,-0.19,-0.15,-0.09
0.261,0.57,-0.28,-0.17,-0.19,-0.15,-0.09
0.264,0.57,-0.28,-0.17,-0.20,-0.15,-0.10
0.264,0.57,-0.28,-0.17,-0.21,-0.14,-0.11
0.265,0.55,-0.29,-0.13,-0.21,-0.14,-0.11
0.267,0.55,-0.29,-0.13,-0.22,-0.13,-0.11
0.268,0.49,-0.33,-0.07,-0.22,-0.13,-0.11
0.271,0.49,-0.33,-0.07,-0.23,-0.12,-0.12
0.272,0.49,-0.33,-0.07,-0.25,-0.11,-0.12
0.273,0.40,-0.33,-0.07,-0.25,-0.11,-0.12
0.275,0.40,-0.33,-0.07,-0.25,-0.10,-0.13
0.275,0.36,-0.34,-0.01,-0.25,-0.10,-0.13
0.276,0.36,-0.34,-0.01,-0.26,-0.09,-0.13
0.28,0.36,-0.34,-0.01,-0.27,-0.09,-0.13
0.28,0.24,-0.33,-0.01,-0.27,-0.09,-0.13
0.284,0.24,-0.33,-0.01,-0.28,-0.08,-0.13
0.284,0.24,-0.33,-0.01,-0.29,-0.07,-0.14
0.284,0.22,-0.31,0.01,-0.29,-0.07,-0.14
0.288,0.22,-0.31,0.01,-0.29,-0.07,-0.14
0.288,0.18,-0.28,0.02,-0.29,-0.07,-0.14
0.292,0.18,-0.28,0.02,-0.30,-0.06,-0.14
0.292,0.17,-0.26,0.02,-0.30,-0.06,-0.14
0.293,0.17,-0.26,0.02,-0.30,-0.06,-0.14
0.296,0.17,-0.26,0.02,-0.30,-0.05,-0.14
0.296,0.15,-0.23,0.02,-0.30,-0.05,-0.14
0.296,0.15,-0.23,0.02,-0.31,-0.05,-0.15
0.317,0.15,-0.23,0.02,-0.31,-0.04,-0.15
0.317,0.17,-0.21,0.01,-0.31,-0.04,-0.15
0.317,0.17,-0.21,0.01,-0.30,-0.04,-0.15
0.318,0.19,-0.14,-0.01,-0.30,-0.04,-0.15
0.318,0.19,-0.14,-0.01,-0.30,-0.03,-0.15
0.318,0.19,-0.14,-0.01,-0.29,-0.03,-0.15
0.318,0.22,-0.11,-0.01,-0.29,-0.03,-0.15
0.319,0.22,-0.11,-0.01,-0.29,-0.03,-0.15
0.319,0.22,-0.11,-0.01,-0.28,-0.03,-0.15
0.319,0.24,-0.10,-0.03,-0.28,-0.03,-0.15
0.319,0.24,-0.10,-0.03,-0.28,-0.02,-0.15
0.32,0.24,-0.10,-0.03,-0.27,-0.02,-0.15
0.32,0.23,-0.07,-0.05,-0.27,-0.02,-0.15
0.32,0.23,-0.07,-0.05,-0.26,-0.03,-0.14
0.321,0.24,-0.03,-0.08,-0.26,-0.03,-0.14
0.323,0.24,-0.03,-0.08,-0.25,-0.03,-0.14
0.324,0.24,-0.03,-0.08,-0.24,-0.03,-0.14
0.324,0.20,0.01,-0.09,-0.24,-0.03,-0.14
0.327,0.20,0.01,-0.09,-0.24,-0.03,-0.14
0.328,0.17,-0.01,-0.15,-0.24,-0.03,-0.14
0.331,0.17,-0.01,-0.15,-0.23,-0.03,-0.13
0.331,0.17,-0.01,-0.15,-0.23,-0.03,-0.13
0.331,0.12,-0.05,-0.20,-0.23,-0.03,-0.13
0.338,0.12,-0.05,-0.20,-0.22,-0.03,-0.13
0.339,0.06,-0.11,-0.24,-0.22,-0.03,-0.13
0.339,0.06,-0.11,-0.24,-0.22,-0.03,-0.12
0.339,-0.02,-0.16,-0.27,-0.22,-0.03,-0.12
0.34,-0.02,-0.16,-0.27,-0.22,-0.03,-0.11
0.343,-0.02,-0.16,-0.27,-0.23,-0.03,-0.11
0.343,-0.16,-0.26,-0.25,-0.23,-0.03,-0.11
0.343,-0.16,-0.26,-0.25,-0.23,-0.04,-0.09
0.345,-0.16,-0.26,-0.25,-0.24,-0.04,-0.08
0.348,-0.27,-0.36,-0.20,-0.24,-0.04,-0.08
0.35,-0.27,-0.36,-0.20,-0.25,-0.05,-0.07
0.354,-0.27,-0.36,-0.20,-0.26,-0.06,-0.05
0.354,-0.45,-0.46,-0.12,-0.26,-0.06,-0.05
0.355,-0.45,-0.46,-0.12,-0.27,-0.07,-0.03
0.357,-0.62,-0.59,-0.01,-0.27,-0.07,-0.03
0.357,-0.62,-0.59,-0.01,-0.28,-0.08,-0.01
0.361,-0.83,-0.62,0.05,-0.28,-0.08,-0.01
0.362,-0.83,-0.62,0.05,-0.30,-0.08,0.01
0.362,-0.83,-0.62,0.05,-0.31,-0.08,0.04
0.365,-0.83,-0.62,0.05,-0.33,-0.08,0.06
0.365,-0.89,-0.59,-0.01,-0.33,-0.08,0.06
0.366,-0.89,-0.59,-0.01,-0.35,-0.07,0.08
0.37,-0.94,-0.52,-0.15,-0.35,-0.07,0.08
0.37,-0.94,-0.52,-0.15,-0.37,-0.06,0.10
0.375,-0.98,-0.48,-0.23,-0.37,-0.06,0.10
0.375,-0.98,-0.48,-0.23,-0.39,-0.06,0.11
0.375,-0.98,-0.48,-0.23,-0.41,-0.06,0.12
0.377,-0.98,-0.48,-0.23,-0.43,-0.06,0.12
0.377,-0.98,-0.47,-0.26,-0.43,-0.06,0.12
0.382,-0.98,-0.47,-0.26,-0.45,-0.07,0.12
0.382,-0.98,-0.47,-0.26,-0.47,-0.08,0.12
0.382,-0.91,-0.44,-0.21,-0.47,-0.08,0.12
0.388,-0.91,-0.44,-0.21,-0.48,-0.10,0.11
0.388,-0.91,-0.44,-0.21,-0.49,-0.12,0.10
0.388,-0.81,-0.38,-0.11,-0.49,-0.12,0.10
0.389,-0.64,-0.35,0.04,-0.49,-0.12,0.10
0.39,-0.64,-0.35,0.04,-0.49,-0.15,0.09
0.394,-0.64,-0.35,0.04,-0.48,-0.18,0.08
0.394,-0.51,-0.30,0.27,-0.48,-0.18,0.08
0.394,-0.51,-0.30,0.27,-0.47,-0.22,0.07
0.397,-0.51,-0.30,0.27,-0.46,-0.28,0.06
0.398,-0.46,-0.25,0.59,-0.46,-0.28,0.06
0.402,-0.46,-0.25,0.59,-0.44,-0.34,0.05
0.402,-0.41,-0.19,0.90,-0.44,-0.34,0.05
0.402,-0.41,-0.19,0.90,-0.41,-0.41,0.04
0.406,-0.41,-0.19,0.90,-0.39,-0.47,0.03
0.407,-0.33,-0.15,1.04,-0.39,-0.47,0.03
0.407,-0.33,-0.15,1.04,-0.36,-0.53,0.03
0.41,-0.25,-0.12,1.09,-0.36,-0.53,0.03
0.41,-0.25,-0.12,1.09,-0.34,-0.58,0.04
0.414,-0.25,-0.12,1.09,-0.31,-0.62,0.05
0.414,-0.26,-0.12,1.01,-0.31,-0.62,0.05
0.414,-0.26,-0.12,1.01,-0.29,-0.66,0.05
0.417,-0.26,-0.12,1.01,-0.27,-0.69,0.05
0.418,-0.11,-0.16,0.92,-0.27,-0.69,0.05
0.421,0.01,-0.29,0.82,-0.27,-0.69,0.05
0.422,0.01,-0.29,0.82,-0.24,-0.69,0.05
0.422,0.01,-0.29,0.82,-0.22,-0.68,0.05
0.426,0.01,-0.29,0.82,-0.19,-0.67,0.05
0.426,0.06,-0.41,0.78,-0.19,-0.67,0.05
0.426,0.06,-0.41,0.78,-0.16,-0.66,0.05
0.429,0.03,-0.55,0.82,-0.16,-0.66,0.05
0.43,0.03,-0.55,0.82,-0.14,-0.66,0.04
0.435,0.03,-0.55,0.82,-0.13,-0.66,0.04
0.435,0.03,-0.55,0.82,-0.10,-0.66,0.03
0.435,0.06,-0.69,0.79,-0.10,-0.66,0.03
0.44,0.06,-0.69,0.79,-0.09,-0.66,0.03
0.441,0.12,-0.79,0.73,-0.09,-0.66,0.03
0.442,0.09,-0.80,0.65,-0.09,-0.66,0.03
0.443,0.09,-0.80,0.65,-0.07,-0.67,0.02
0.443,0.09,-0.80,0.65,-0.07,-0.69,0.01
0.445,0.09,-0.80,0.65,-0.06,-0.70,0.01
0.445,0.09,-0.75,0.46,-0.06,-0.70,0.01
0.445,0.09,-0.75,0.46,-0.05,-0.71,0.00
0.45,0.04,-0.68,0.30,-0.05,-0.71,0.00
0.45,0.04,-0.68,0.30,-0.05,-0.71,-0.00
0.454,-0.04,-0.56,0.09,-0.05,-0.71,-0.00
0.469,-0.04,-0.56,0.09,-0.06,-0.71,-0.01
0.47,-0.04,-0.56,0.09,-0.07,-0.70,-0.02
0.47,0.07,-0.38,-0.28,-0.07,-0.70,-0.02
0.47,0.07,-0.38,-0.28,-0.07,-0.69,-0.04
0.47,0.07,-0.38,-0.28,-0.09,-0.66,-0.06
0.47,0.22,-0.25,-0.56,-0.09,-0.66,-0.06
0.47,0.22,-0.25,-0.56,-0.10,-0.64,-0.08
0.471,0.22,-0.25,-0.56,-0.12,-0.62,-0.11
0.471,0.42,-0.13,-0.84,-0.12,-0.62,-0.11
0.471,0.42,-0.13,-0.84,-0.14,-0.60,-0.14
0.471,0.61,-0.00,-1.03,-0.14,-0.60,-0.14
0.471,0.61,-0.00,-1.03,-0.16,-0.58,-0.18
0.474,0.61,-0.00,-1.03,-0.18,-0.58,-0.22
0.475,0.72,0.06,-1.05,-0.18,-0.58,-0.22
0.475,0.72,0.06,-1.05,-0.20,-0.58,-0.26
0.478,0.77,0.11,-1.09,-0.20,-0.58,-0.26
0.478,0.77,0.11,-1.09,-0.21,-0.59,-0.30
0.482,0.81,0.16,-1.06,-0.21,-0.59,-0.30
0.482,0.81,0.16,-1.06,-0.23,-0.60,-0.35
0.483,0.81,0.16,-1.06,-0.24,-0.62,-0.39
0.485,0.81,0.16,-1.06,-0.25,-0.64,-0.44
0.485,0.75,0.18,-0.96,-0.25,-0.64,-0.44
0.488,0.75,0.18,-0.96,-0.26,-0.65,-0.48
0.489,0.63,0.28,-0.81,-0.26,-0.65,-0.48
0.489,0.63,0.28,-0.81,-0.27,-0.66,-0.52
0.493,0.42,0.30,-0.64,-0.27,-0.66,-0.52
0.493,0.42,0.30,-0.64,-0.28,-0.66,-0.56
0.494,0.42,0.30,-0.64,-0.28,-0.66,-0.60
0.497,0.42,0.30,-0.64,-0.27,-0.65,-0.63
0.497,0.27,0.34,-0.40,-0.27,-0.65,-0.63
0.502,0.27,0.34,-0.40,-0.27,-0.64,-0.66
0.502,0.07,0.38,-0.08,-0.27,-0.64,-0.66
0.503,0.07,0.38,-0.08,-0.26,-0.62,-0.68
0.506,0.07,0.38,-0.08,-0.24,-0.60,-0.70
0.506,-0.05,0.42,0.17,-0.24,-0.60,-0.70
0.507,-0.05,0.42,0.17,-0.23,-0.57,-0.72
0.51,-0.10,0.43,0.37,-0.23,-0.57,-0.72
0.51,-0.10,0.43,0.37,-0.22,-0.55,-0.74
0.513,-0.10,0.43,0.37,-0.21,-0.51,-0.75
0.513,-0.15,0.45,0.55,-0.21,-0.51,-0.75
0.513,-0.15,0.45,0.55,-0.19,-0.48,-0.77
0.518,-0.15,0.45,0.55,-0.18,-0.44,-0.78
0.518,-0.08,0.44,0.60,-0.18,-0.44,-0.78
0.521,-0.04,0.43,0.62,-0.18,-0.44,-0.78
0.521,-0.04,0.43,0.62,-0.17,-0.40,-0.79
0.522,-0.04,0.43,0.62,-0.16,-0.37,-0.80
0.526,-0.04,0.43,0.62,-0.15,-0.34,-0.81
0.526,0.02,0.45,0.55,-0.15,-0.34,-0.81
0.526,0.02,0.45,0.55,-0.15,-0.31,-0.82
0.53,0.08,0.51,0.42,-0.15,-0.31,-0.82
0.53,0.08,0.51,0.42,-0.15,-0.29,-0.82
0.535,0.08,0.51,0.42,-0.15,-0.27,-0.82
0.535,0.18,0.55,0.28,-0.15,-0.27,-0.82
0.535,0.18,0.55,0.28,-0.15,-0.26,-0.82
0.538,0.18,0.55,0.28,-0.15,-0.25,-0.82
0.538,0.31,0.58,0.10,-0.15,-0.25,-0.82
0.542,0.31,0.58,0.10,-0.16,-0.24,-0.81
0.543,0.31,0.58,0.10,-0.17,-0.23,-0.80
0.543,0.53,0.61,-0.05,-0.17,-0.23,-0.80
0.545,0.53,0.61,-0.05,-0.18,-0.23,-0.80
0.545,0.76,0.60,-0.26,-0.18,-0.23,-0.80
0.545,0.76,0.60,-0.26,-0.19,-0.23,-0.79
0.548,0.91,0.54,-0.39,-0.19,-0.23,-0.79
0.55,0.91,0.54,-0.39,-0.21,-0.23,-0.77
0.552,0.91,0.54,-0.39,-0.22,-0.23,-0.76
0.553,1.02,0.48,-0.48,-0.22,-0.23,-0.76
0.555,1.02,0.48,-0.48,-0.23,-0.23,-0.74
0.557,1.02,0.48,-0.48,-0.24,-0.24,-0.72
0.557,1.07,0.35,-0.49,-0.24,-0.24,-0.72
0.561,1.00,0.16,-0.46,-0.24,-0.24,-0.72
0.561,1.00,0.16,-0.46,-0.25,-0.25,-0.70
0.565,1.00,0.16,-0.46,-0.26,-0.26,-0.68
0.565,1.00,0.16,-0.46,-0.27,-0.27,-0.65
0.565,0.90,-0.03,-0.46,-0.27,-0.27,-0.65
0.569,0.90,-0.03,-0.46,-0.28,-0.28,-0.62
0.569,0.67,-0.18,-0.45,-0.28,-0.28,-0.62
0.575,0.67,-0.18,-0.45,-0.28,-0.29,-0.59
0.576,0.67,-0.18,-0.45,-0.28,-0.31,-0.55
0.576,0.37,-0.34,-0.43,-0.28,-0.31,-0.55
0.576,0.37,-0.34,-0.43,-0.28,-0.35,-0.50
0.576,0.37,-0.34,-0.43,-0.28,-0.39,-0.45
0.577,-0.06,-0.54,-0.40,-0.28,-0.39,-0.45
0.581,-0.44,-0.73,-0.37,-0.28,-0.39,-0.45
0.581,-0.44,-0.73,-0.37,-0.27,-0.43,-0.40
0.583,-0.44,-0.73,-0.37,-0.27,-0.48,-0.34
0.585,-0.44,-0.73,-0.37,-0.26,-0.53,-0.27
0.585,-0.74,-0.86,-0.41,-0.26,-0.53,-0.27
0.588,-0.74,-0.86,-0.41,-0.27,-0.57,-0.19
0.588,-1.05,-0.93,-0.58,-0.27,-0.57,-0.19
0.593,-1.05,-0.93,-0.58,-0.28,-0.60,-0.12
0.594,-1.05,-0.93,-0.58,-0.29,-0.62,-0.04
0.594,-1.12,-0.92,-0.84,-0.29,-0.62,-0.04
0.597,-1.12,-0.92,-0.84,-0.32,-0.62,0.03
0.597,-1.05,-0.85,-1.03,-0.32,-0.62,0.03
0.597,-1.05,-0.85,-1.03,-0.36,-0.61,0.11
0.601,-1.05,-0.85,-1.03,-0.42,-0.60,0.17
0.602,-0.92,-0.79,-1.18,-0.42,-0.60,0.17
0.606,-0.92,-0.79,-1.18,-0.47,-0.60,0.23
0.606,-0.92,-0.79,-1.18,-0.52,-0.60,0.28
0.607,-0.79,-0.57,-1.09,-0.52,-0.60,0.28
0.624,-0.79,-0.57,-1.09,-0.57,-0.59,0.32
0.625,-0.73,-0.32,-0.89,-0.57,-0.59,0.32
0.625,-0.92,-0.21,-0.78,-0.57,-0.59,0.32
0.625,-1.09,-0.06,-0.65,-0.57,-0.59,0.32
0.625,-1.09,-0.06,-0.65,-0.61,-0.57,0.36
0.625,-1.09,-0.06,-0.65,-0.66,-0.54,0.39
0.625,-1.09,-0.06,-0.65,-0.69,-0.49,0.41
0.625,-1.06,0.07,-0.47,-0.69,-0.49,0.41
0.625,-1.06,0.07,-0.47,-0.72,-0.45,0.43
0.626,-1.06,0.07,-0.47,-0.75,-0.40,0.44
0.628,-1.06,0.07,-0.47,-0.76,-0.35,0.44
0.628,-1.06,0.07,-0.47,-0.76,-0.30,0.44
0.629,-0.88,0.14,-0.25,-0.76,-0.30,0.44
0.629,-0.88,0.14,-0.25,-0.75,-0.26,0.43
0.629,-0.71,0.15,0.04,-0.75,-0.26,0.43
0.632,-0.51,0.15,0.32,-0.75,-0.26,0.43
0.632,-0.51,0.15,0.32,-0.74,-0.23,0.42
0.632,-0.51,0.15,0.32,-0.71,-0.22,0.40
0.635,-0.51,0.15,0.32,-0.68,-0.21,0.38
0.635,-0.51,0.15,0.32,-0.64,-0.21,0.36
0.635,-0.35,0.18,0.53,-0.64,-0.21,0.36
0.639,-0.18,0.21,0.65,-0.64,-0.21,0.36
0.64,-0.18,0.21,0.65,-0.60,-0.22,0.33
0.643,-0.18,0.21,0.65,-0.55,-0.23,0.31
0.643,-0.18,0.21,0.65,-0.50,-0.25,0.28
0.643,-0.11,0.26,0.72,-0.50,-0.25,0.28
0.646,-0.11,0.26,0.72,-0.45,-0.28,0.25
0.647,-0.14,0.22,0.91,-0.45,-0.28,0.25
0.65,-0.14,0.22,0.91,-0.39,-0.32,0.23
0.651,-0.22,0.16,1.07,-0.39,-0.32,0.23
0.651,-0.22,0.16,1.07,-0.32,-0.36,0.21
0.656,-0.22,0.16,1.07,-0.26,-0.39,0.19
0.657,-0.23,0.11,1.12,-0.26,-0.39,0.19
0.657,-0.23,0.11,1.12,-0.19,-0.41,0.17
0.66,-0.23,0.11,1.12,-0.13,-0.41,0.15
0.66,-0.18,0.05,1.11,-0.13,-0.41,0.15
0.663,-0.18,0.05,1.11,-0.07,-0.40,0.13
0.664,-0.18,0.05,1.11,-0.02,-0.36,0.11
0.664,0.02,-0.04,0.96,-0.02,-0.36,0.11
0.667,0.02,-0.04,0.96,0.02,-0.31,0.09
0.671,0.02,-0.04,0.96,0.06,-0.26,0.08
0.671,0.17,-0.14,0.76,0.06,-0.26,0.08
0.671,0.20,-0.18,0.60,0.06,-0.26,0.08
0.672,0.20,-0.18,0.60,0.09,-0.21,0.07
0.676,0.20,-0.18,0.60,0.12,-0.16,0.07
0.676,0.20,-0.18,0.60,0.14,-0.12,0.07
0.676,0.22,-0.19,0.39,0.14,-0.12,0.07
0.68,0.22,-0.19,0.39,0.15,-0.08,0.08
0.68,0.05,-0.11,0.18,0.15,-0.08,0.08
0.684,0.05,-0.11,0.18,0.16,-0.05,0.10
0.684,-0.17,0.01,0.11,0.16,-0.05,0.10
0.684,-0.17,0.01,0.11,0.16,-0.04,0.12
0.688,-0.17,0.01,0.11,0.16,-0.03,0.15
0.689,-0.36,0.23,0.02,0.16,-0.03,0.15
0.692,-0.36,0.23,0.02,0.15,-0.03,0.18
0.692,-0.50,0.43,-0.02,0.15,-0.03,0.18
0.692,-0.50,0.43,-0.02,0.15,-0.04,0.22
0.695,-0.50,0.43,-0.02,0.14,-0.06,0.26
0.696,-0.63,0.50,0.05,0.14,-0.06,0.26
0.696,-0.63,0.50,0.05,0.13,-0.08,0.29
0.7,-0.56,0.53,0.14,0.13,-0.08,0.29
0.7,-0.56,0.53,0.14,0.12,-0.10,0.32
0.704,-0.56,0.53,0.14,0.11,-0.11,0.35
0.704,-0.56,0.53,0.14,0.10,-0.10,0.38
0.704,-0.64,0.54,0.07,0.10,-0.10,0.38
0.708,-0.64,0.54,0.07,0.10,-0.09,0.40
0.708,-0.92,0.54,0.00,0.10,-0.09,0.40
0.712,-1.09,0.44,0.11,0.10,-0.09,0.40
0.712,-1.09,0.44,0.11,0.10,-0.08,0.42
0.713,-1.09,0.44,0.11,0.10,-0.06,0.44
0.721,-1.09,0.44,0.11,0.11,-0.04,0.45
0.721,-1.16,0.26,0.15,0.11,-0.04,0.45
0.721,-1.16,0.26,0.15,0.12,-0.01,0.45
0.721,-1.16,0.26,0.15,0.15,0.02,0.45
0.721,-1.10,0.10,0.19,0.15,0.02,0.45
0.726,-1.10,0.10,0.19,0.17,0.05,0.45
0.727,-0.86,-0.05,0.23,0.17,0.05,0.45
0.727,-0.86,-0.05,0.23,0.20,0.10,0.44
0.728,-0.86,-0.05,0.23,0.22,0.15,0.42
0.731,-0.41,-0.16,0.18,0.22,0.15,0.42
0.732,-0.41,-0.16,0.18,0.25,0.21,0.39
0.732,0.16,-0.23,0.14,0.25,0.21,0.39
0.732,0.16,-0.23,0.14,0.28,0.27,0.36
0.735,0.16,-0.23,0.14,0.31,0.32,0.33
0.735,0.16,-0.23,0.14,0.35,0.37,0.30
0.736,0.63,-0.22,0.11,0.35,0.37,0.30
0.74,0.63,-0.22,0.11,0.38,0.40,0.26
0.741,0.95,-0.27,0.12,0.38,0.40,0.26
0.743,0.95,-0.27,0.12,0.41,0.43,0.23
0.743,0.95,-0.27,0.12,0.44,0.46,0.19
0.744,1.20,-0.29,0.05,0.44,0.46,0.19
0.746,1.20,-0.29,0.05,0.46,0.47,0.16
0.748,1.34,-0.34,-0.03,0.46,0.47,0.16
0.75,1.34,-0.34,-0.03,0.48,0.48,0.12
0.752,1.34,-0.34,-0.03,0.50,0.49,0.09
0.752,1.40,-0.35,-0.14,0.50,0.49,0.09
0.757,1.40,-0.35,-0.14,0.51,0.49,0.07
0.757,1.40,-0.35,-0.14,0.51,0.48,0.04
0.757,1.37,-0.47,-0.24,0.51,0.48,0.04
0.761,1.37,-0.47,-0.24,0.52,0.47,0.02
0.783,1.30,-0.54,-0.35,0.52,0.47,0.02
0.783,1.30,-0.54,-0.35,0.51,0.45,-0.00
0.783,1.22,-0.61,-0.44,0.51,0.45,-0.00
0.783,1.22,-0.61,-0.44,0.50,0.43,-0.02
0.784,1.22,-0.61,-0.44,0.49,0.39,-0.04
0.784,1.13,-0.71,-0.50,0.49,0.39,-0.04
0.784,0.89,-0.80,-0.47,0.49,0.39,-0.04
0.785,0.89,-0.80,-0.47,0.48,0.36,-0.05
0.785,0.89,-0.80,-0.47,0.46,0.31,-0.06
0.785,0.56,-0.79,-0.52,0.46,0.31,-0.06
0.786,0.56,-0.79,-0.52,0.43,0.28,-0.06
0.786,0.56,-0.79,-0.52,0.41,0.24,-0.06
0.786,0.12,-0.72,-0.53,0.41,0.24,-0.06
0.786,0.12,-0.72,-0.53,0.38,0.21,-0.05
0.787,0.12,-0.72,-0.53,0.36,0.19,-0.04
0.787,-0.34,-0.66,-0.53,0.36,0.19,-0.04
0.787,-0.34,-0.66,-0.53,0.33,0.16,-0.02
0.787,-0.34,-0.66,-0.53,0.31,0.14,0.00
0.788,-0.78,-0.65,-0.44,0.31,0.14,0.00
0.791,-0.78,-0.65,-0.44,0.28,0.13,0.02
0.792,-1.19,-0.71,-0.35,0.28,0.13,0.02
0.792,-1.19,-0.71,-0.35,0.25,0.12,0.05
0.795,-1.19,-0.71,-0.35,0.22,0.12,0.08
0.795,-1.19,-0.71,-0.35,0.19,0.11,0.11
0.795,-1.56,-0.81,-0.24,0.19,0.11,0.11
0.799,-1.56,-0.81,-0.24,0.17,0.11,0.14
0.8,-1.83,-0.84,-0.12,0.17,0.11,0.14
0.803,-1.83,-0.84,-0.12,0.15,0.11,0.17
0.803,-1.83,-0.84,-0.12,0.14,0.12,0.21
0.803,-2.06,-0.90,0.04,0.14,0.12,0.21
0.807,-2.06,-0.90,0.04,0.13,0.13,0.24
0.808,-2.30,-0.87,0.23,0.13,0.13,0.24
0.811,-2.30,-0.87,0.23,0.13,0.14,0.29
0.811,-2.73,-0.83,0.55,0.13,0.14,0.29
0.811,-2.73,-0.83,0.55,0.14,0.15,0.34
0.815,-2.73,-0.83,0.55,0.16,0.16,0.40
0.816,-2.73,-0.83,0.55,0.19,0.17,0.46
0.816,-3.13,-0.71,0.89,0.19,0.17,0.46
0.819,-3.13,-0.71,0.89,0.23,0.18,0.53
0.82,-3.56,-0.61,1.37,0.23,0.18,0.53
0.825,-3.56,-0.61,1.37,0.29,0.19,0.61
0.825,-3.56,-0.61,1.37,0.35,0.21,0.70
0.829,-3.97,-0.41,1.87,0.35,0.21,0.70
0.829,-4.52,-0.00,2.58,0.35,0.21,0.70
0.829,-4.52,-0.00,2.58,0.43,0.21,0.80
0.833,-5.30,0.72,3.73,0.43,0.21,0.80
0.836,-5.86,1.53,5.37,0.43,0.21,0.80
0.836,-5.86,1.53,5.37,0.54,0.20,0.92
0.836,-5.86,1.53,5.37,0.67,0.18,1.06
0.836,-5.86,1.53,5.37,0.83,0.15,1.21
0.836,-5.86,1.53,5.37,1.02,0.14,1.34
0.842,-5.86,1.53,5.37,1.20,0.17,1.43
0.842,-4.62,1.23,6.14,1.20,0.17,1.43
0.843,-4.62,1.23,6.14,1.36,0.25,1.48
0.843,-2.37,-0.06,5.29,1.36,0.25,1.48
0.843,-2.37,-0.06,5.29,1.49,0.37,1.49
0.846,-2.37,-0.06,5.29,1.60,0.53,1.46
0.847,-0.29,-1.24,3.83,1.60,0.53,1.46
0.851,-0.29,-1.24,3.83,1.68,0.68,1.41
0.851,-0.29,-1.24,3.83,1.73,0.83,1.35
0.851,1.18,-1.96,2.57,1.73,0.83,1.35
0.855,1.18,-1.96,2.57,1.75,0.97,1.28
0.855,1.82,-2.31,1.26,1.75,0.97,1.28
0.855,1.82,-2.31,1.26,1.74,1.10,1.21
0.86,1.84,-2.27,-0.03,1.74,1.10,1.21
0.86,1.84,-2.27,-0.03,1.71,1.18,1.15
0.863,1.84,-2.27,-0.03,1.66,1.21,1.10
0.863,1.84,-2.27,-0.03,1.61,1.21,1.07
0.864,1.16,-1.97,-0.56,1.61,1.21,1.07
0.867,1.16,-1.97,-0.56,1.54,1.19,1.05
0.867,0.41,-1.51,-1.28,1.54,1.19,1.05
0.871,0.41,-1.51,-1.28,1.46,1.15,1.05
0.871,0.41,-1.51,-1.28,1.36,1.10,1.07
0.872,-0.12,-1.06,-2.13,1.36,1.10,1.07
0.875,-0.12,-1.06,-2.13,1.26,1.02,1.10
0.878,-0.12,-1.06,-2.13,1.16,0.94,1.14
0.878,-0.48,-0.77,-2.74,1.16,0.94,1.14
0.88,-0.52,-0.51,-3.05,1.16,0.94,1.14
0.881,-0.52,-0.51,-3.05,1.04,0.82,1.18
0.884,-0.52,-0.51,-3.05,0.94,0.69,1.22
0.884,-0.34,-0.35,-3.11,0.94,0.69,1.22
0.884,-0.34,-0.35,-3.11,0.83,0.53,1.27
0.885,-0.34,-0.35,-3.11,0.72,0.37,1.31
0.888,-0.23,-0.24,-3.01,0.72,0.37,1.31
0.891,-0.23,-0.24,-3.01,0.62,0.20,1.36
0.892,-0.23,-0.24,-3.01,0.52,0.03,1.39
0.892,0.02,-0.16,-2.93,0.52,0.03,1.39
0.895,0.02,-0.16,-2.93,0.42,-0.13,1.43
0.896,0.02,-0.16,-2.93,0.33,-0.29,1.46
0.896,0.27,-0.10,-2.90,0.33,-0.29,1.46
0.9,0.27,-0.10,-2.90,0.24,-0.43,1.48
0.9,0.39,-0.04,-2.82,0.24,-0.43,1.48
0.903,0.39,-0.04,-2.82,0.16,-0.56,1.50
0.903,0.39,-0.04,-2.82,0.08,-0.68,1.52
0.904,0.58,0.07,-2.74,0.08,-0.68,1.52
0.906,0.58,0.07,-2.74,0.01,-0.78,1.52
0.907,0.91,0.15,-2.64,0.01,-0.78,1.52
0.911,0.91,0.15,-2.64,-0.06,-0.86,1.52
0.911,0.91,0.15,-2.64,-0.13,-0.93,1.51
0.912,1.31,0.24,-2.56,-0.13,-0.93,1.51
0.925,1.31,0.24,-2.56,-0.19,-0.97,1.48
0.925,1.31,0.24,-2.56,-0.25,-1.01,1.44
0.925,1.89,0.39,-2.49,-0.25,-1.01,1.44
0.925,2.54,0.62,-2.36,-0.25,-1.01,1.44
0.925,2.54,0.62,-2.36,-0.30,-1.03,1.39
0.925,2.54,0.62,-2.36,-0.35,-1.04,1.33
0.925,2.54,0.62,-2.36,-0.40,-1.04,1.25
0.925,3.18,0.86,-2.26,-0.40,-1.04,1.25
0.927,3.18,0.86,-2.26,-0.44,-1.05,1.16
0.927,3.77,1.22,-2.12,-0.44,-1.05,1.16
0.931,3.77,1.22,-2.12,-0.48,-1.05,1.06
0.931,3.77,1.22,-2.12,-0.51,-1.05,0.96
0.931,4.22,1.57,-1.93,-0.51,-1.05,0.96
0.935,4.22,1.57,-1.93,-0.54,-1.06,0.85
0.935,4.55,1.85,-1.59,-0.54,-1.06,0.85
0.936,4.55,1.85,-1.59,-0.56,-1.08,0.74
0.94,4.55,1.85,-1.59,-0.57,-1.11,0.63
0.941,4.77,2.05,-1.19,-0.57,-1.11,0.63
0.943,4.77,2.05,-1.19,-0.57,-1.13,0.52
0.943,4.77,2.05,-1.19,-0.56,-1.16,0.43
0.943,4.82,2.05,-0.80,-0.56,-1.16,0.43
0.945,4.82,2.05,-0.80,-0.55,-1.20,0.34
0.947,4.64,1.77,-0.41,-0.55,-1.20,0.34
0.949,4.64,1.77,-0.41,-0.53,-1.23,0.26
0.953,4.64,1.77,-0.41,-0.50,-1.25,0.19
0.954,4.23,1.29,-0.20,-0.50,-1.25,0.19
0.954,4.23,1.29,-0.20,-0.48,-1.26,0.14
0.958,3.63,0.77,-0.13,-0.48,-1.26,0.14
0.959,3.63,0.77,-0.13,-0.45,-1.25,0.09
0.961,3.11,0.27,-0.19,-0.45,-1.25,0.09
0.961,3.11,0.27,-0.19,-0.44,-1.21,0.05
0.962,3.11,0.27,-0.19,-0.43,-1.16,0.03
0.965,3.11,0.27,-0.19,-0.43,-1.09,0.01
0.965,2.66,-0.08,-0.27,-0.43,-1.09,0.01
0.965,2.66,-0.08,-0.27,-0.43,-1.01,-0.01
0.969,2.26,-0.27,-0.42,-0.43,-1.01,-0.01
0.969,2.26,-0.27,-0.42,-0.44,-0.92,-0.02
0.973,2.26,-0.27,-0.42,-0.46,-0.83,-0.03
0.973,2.26,-0.27,-0.42,-0.48,-0.73,-0.03
0.974,1.85,-0.31,-0.57,-0.48,-0.73,-0.03
0.977,1.85,-0.31,-0.57,-0.51,-0.63,-0.03
0.978,1.53,-0.30,-0.77,-0.51,-0.63,-0.03
0.981,1.31,-0.27,-0.91,-0.51,-0.63,-0.03
0.982,1.31,-0.27,-0.91,-0.54,-0.54,-0.03
0.982,1.31,-0.27,-0.91,-0.57,-0.45,-0.03
0.985,1.03,-0.19,-1.04,-0.57,-0.45,-0.03
0.986,1.03,-0.19,-1.04,-0.60,-0.37,-0.03
0.986,1.03,-0.19,-1.04,-0.63,-0.29,-0.03
0.99,0.90,-0.11,-1.19,-0.63,-0.29,-0.03
0.99,0.90,-0.11,-1.19,-0.66,-0.21,-0.04
0.994,0.90,-0.11,-1.19,-0.69,-0.15,-0.04
0.994,0.82,-0.09,-1.31,-0.69,-0.15,-0.04
0.995,0.82,-0.09,-1.31,-0.71,-0.09,-0.04
0.998,0.82,-0.09,-1.31,-0.74,-0.04,-0.04
0.998,0.72,-0.08,-1.35,-0.74,-0.04,-0.04
1.002,0.72,-0.08,-1.35,-0.76,0.00,-0.05
1.003,0.72,-0.08,-1.35,-0.78,0.04,-0.05
1.003,0.73,-0.02,-1.37,-0.78,0.04,-0.05
1.005,0.75,0.04,-1.34,-0.78,0.04,-0.05
1.006,0.75,0.04,-1.34,-0.79,0.07,-0.06
1.006,0.75,0.04,-1.34,-0.81,0.10,-0.07
1.009,0.78,0.08,-1.28,-0.81,0.10,-0.07
1.01,0.78,0.08,-1.28,-0.82,0.13,-0.08
1.014,0.78,0.08,-1.28,-0.83,0.16,-0.10
1.014,0.85,0.16,-1.28,-0.83,0.16,-0.10
1.014,0.85,0.16,-1.28,-0.84,0.19,-0.12
1.018,0.85,0.16,-1.28,-0.85,0.21,-0.14
1.018,0.96,0.26,-1.17,-0.85,0.21,-0.14
1.022,1.03,0.34,-0.99,-0.85,0.21,-0.14
1.022,1.03,0.34,-0.99,-0.85,0.23,-0.16
1.025,1.03,0.34,-0.99,-0.86,0.24,-0.18
1.026,1.03,0.34,-0.99,-0.87,0.25,-0.21
1.026,1.03,0.34,-0.99,-0.87,0.25,-0.24
1.027,1.18,0.44,-0.82,-0.87,0.25,-0.24
1.03,1.33,0.59,-0.62,-0.87,0.25,-0.24
1.03,1.33,0.59,-0.62,-0.87,0.24,-0.27
1.034,1.33,0.59,-0.62,-0.87,0.23,-0.30
1.034,1.33,0.59,-0.62,-0.88,0.22,-0.34
1.035,1.49,0.73,-0.41,-0.88,0.22,-0.34
1.038,1.70,0.93,-0.21,-0.88,0.22,-0.34
1.043,1.70,0.93,-0.21,-0.88,0.21,-0.37
1.043,1.70,0.93,-0.21,-0.88,0.20,-0.42
1.044,1.88,1.08,-0.04,-0.88,0.20,-0.42
1.044,1.88,1.08,-0.04,-0.88,0.20,-0.46
1.048,2.09,1.20,0.14,-0.88,0.20,-0.46
1.049,2.31,1.33,0.27,-0.88,0.20,-0.46
1.05,2.31,1.33,0.27,-0.88,0.20,-0.52
1.05,2.31,1.33,0.27,-0.89,0.21,-0.57
1.051,2.31,1.33,0.27,-0.89,0.22,-0.63
1.054,2.51,1.39,0.40,-0.89,0.22,-0.63
1.054,2.51,1.39,0.40,-0.89,0.24,-0.70
1.054,2.51,1.39,0.40,-0.89,0.25,-0.77
1.057,2.70,1.39,0.45,-0.89,0.25,-0.77
1.058,2.70,1.39,0.45,-0.89,0.28,-0.84
1.061,2.70,1.39,0.45,-0.89,0.31,-0.93
1.062,2.90,1.32,0.48,-0.89,0.31,-0.93
1.062,2.90,1.32,0.48,-0.88,0.34,-1.01
1.065,2.90,1.32,0.48,-0.87,0.38,-1.10
1.065,3.00,1.23,0.49,-0.87,0.38,-1.10
1.066,3.00,1.23,0.49,-0.86,0.42,-1.19
1.087,3.04,1.05,0.50,-0.86,0.42,-1.19
1.087,3.04,1.05,0.50,-0.85,0.46,-1.29
1.088,3.04,1.05,0.50,-0.83,0.50,-1.38
1.088,2.95,0.79,0.53,-0.83,0.50,-1.38
1.088,2.95,0.79,0.53,-0.80,0.54,-1.48
1.088,2.66,0.46,0.56,-0.80,0.54,-1.48
1.089,2.66,0.46,0.56,-0.77,0.58,-1.57
1.089,2.66,0.46,0.56,-0.73,0.60,-1.65
1.089,2.66,0.46,0.56,-0.68,0.61,-1.72
1.09,2.23,0.15,0.65,-0.68,0.61,-1.72
1.09,1.77,-0.12,0.71,-0.68,0.61,-1.72
1.09,1.77,-0.12,0.71,-0.64,0.61,-1.79
1.091,1.77,-0.12,0.71,-0.59,0.60,-1.84
1.091,1.29,-0.34,0.75,-0.59,0.60,-1.84
1.091,1.29,-0.34,0.75,-0.54,0.59,-1.88
1.093,1.29,-0.34,0.75,-0.50,0.56,-1.92
1.094,0.86,-0.48,0.73,-0.50,0.56,-1.92
1.094,0.86,-0.48,0.73,-0.45,0.53,-1.94
1.098,0.86,-0.48,0.73,-0.41,0.50,-1.95
1.098,0.45,-0.55,0.68,-0.41,0.50,-1.95
1.101,0.45,-0.55,0.68,-0.37,0.47,-1.95
1.101,0.08,-0.48,0.58,-0.37,0.47,-1.95
1.101,0.08,-0.48,0.58,-0.33,0.43,-1.95
1.105,0.08,-0.48,0.58,-0.30,0.41,-1.93
1.105,-0.24,-0.43,0.52,-0.30,0.41,-1.93
1.105,-0.24,-0.43,0.52,-0.26,0.38,-1.91
1.109,-0.49,-0.38,0.48,-0.26,0.38,-1.91
1.11,-0.49,-0.38,0.48,-0.24,0.34,-1.88
1.113,-0.49,-0.38,0.48,-0.21,0.32,-1.84
1.113,-0.72,-0.30,0.46,-0.21,0.32,-1.84
1.113,-0.72,-0.30,0.46,-0.19,0.30,-1.81
1.117,-0.86,-0.25,0.39,-0.19,0.30,-1.81
1.117,-0.86,-0.25,0.39,-0.17,0.28,-1.76
1.121,-0.90,-0.18,0.30,-0.17,0.28,-1.76
1.121,-0.90,-0.18,0.30,-0.16,0.27,-1.72
1.121,-0.90,-0.18,0.30,-0.14,0.26,-1.68
1.125,-0.90,-0.18,0.30,-0.14,0.26,-1.63
1.127,-0.90,-0.18,0.30,-0.13,0.26,-1.59
1.127,-0.89,-0.07,0.26,-0.13,0.26,-1.59
1.129,-0.78,0.05,0.23,-0.13,0.26,-1.59
1.129,-0.78,0.05,0.23,-0.13,0.25,-1.56
1.134,-0.78,0.05,0.23,-0.13,0.25,-1.52
1.134,-0.78,0.05,0.23,-0.14,0.24,-1.50
1.134,-0.61,0.12,0.18,-0.14,0.24,-1.50
1.137,-0.61,0.12,0.18,-0.15,0.23,-1.48
1.137,-0.42,0.18,0.13,-0.15,0.23,-1.48
1.141,-0.18,0.23,0.03,-0.15,0.23,-1.48
1.141,-0.18,0.23,0.03,-0.18,0.22,-1.47
1.142,-0.18,0.23,0.03,-0.20,0.21,-1.46
1.144,-0.18,0.23,0.03,-0.22,0.20,-1.46
1.144,0.09,0.31,-0.09,-0.22,0.20,-1.46
1.146,0.09,0.31,-0.09,-0.25,0.19,-1.47
1.148,0.35,0.40,-0.16,-0.25,0.19,-1.47
1.149,0.35,0.40,-0.16,-0.28,0.19,-1.48
1.152,0.56,0.51,-0.23,-0.28,0.19,-1.48
1.152,0.56,0.51,-0.23,-0.31,0.19,-1.49
1.155,0.56,0.51,-0.23,-0.34,0.19,-1.51
1.156,0.56,0.51,-0.23,-0.37,0.20,-1.53
1.156,0.72,0.53,-0.21,-0.37,0.20,-1.53
1.16,0.72,0.53,-0.21,-0.39,0.21,-1.55
1.161,0.85,0.55,-0.19,-0.39,0.21,-1.55
1.164,0.85,0.55,-0.19,-0.40,0.23,-1.58
1.164,0.93,0.55,-0.12,-0.40,0.23,-1.58
1.164,0.93,0.55,-0.12,-0.41,0.25,-1.60
1.167,0.93,0.55,-0.12,-0.41,0.28,-1.63
1.168,0.96,0.51,-0.02,-0.41,0.28,-1.63
1.171,0.96,0.51,-0.02,-0.40,0.30,-1.65
1.171,0.90,0.42,0.04,-0.40,0.30,-1.65
1.172,0.90,0.42,0.04,-0.39,0.34,-1.68
1.175,0.90,0.42,0.04,-0.37,0.37,-1.70
1.175,0.85,0.35,0.10,-0.37,0.37,-1.70
1.176,0.85,0.35,0.10,-0.34,0.41,-1.73
1.18,0.85,0.35,0.10,-0.31,0.46,-1.75
1.181,0.76,0.25,0.11,-0.31,0.46,-1.75
1.184,0.76,0.25,0.11,-0.28,0.49,-1.77
1.184,0.65,0.10,0.15,-0.28,0.49,-1.77
1.184,0.65,0.10,0.15,-0.24,0.53,-1.79
1.187,0.65,0.10,0.15,-0.21,0.56,-1.81
1.188,0.54,0.06,0.14,-0.21,0.56,-1.81
1.191,0.54,0.06,0.14,-0.17,0.58,-1.83
1.192,0.45,0.08,0.05,-0.17,0.58,-1.83
1.192,0.45,0.08,0.05,-0.13,0.60,-1.85
1.196,0.45,0.08,0.05,-0.10,0.61,-1.86
1.196,0.45,0.08,0.05,-0.07,0.60,-1.88
1.196,0.41,0.13,-0.07,-0.07,0.60,-1.88
1.2,0.41,0.13,-0.07,-0.04,0.59,-1.90
1.201,0.41,0.20,-0.14,-0.04,0.59,-1.90
1.204,0.41,0.20,-0.14,-0.01,0.56,-1.93
1.204,0.41,0.27,-0.20,-0.01,0.56,-1.93
1.204,0.41,0.27,-0.20,0.01,0.53,-1.95
1.208,0.41,0.27,-0.20,0.03,0.48,-1.98
1.209,0.48,0.34,-0.27,0.03,0.48,-1.98
1.212,0.48,0.34,-0.27,0.04,0.42,-2.01
1.212,0.48,0.34,-0.27,0.05,0.35,-2.04
1.213,0.52,0.40,-0.27,0.05,0.35,-2.04
1.215,0.52,0.40,-0.27,0.06,0.27,-2.08
1.216,0.52,0.40,-0.27,0.06,0.18,-2.12
1.216,0.60,0.38,-0.25,0.06,0.18,-2.12
1.22,0.60,0.38,-0.25,0.07,0.07,-2.16
1.221,0.60,0.29,-0.12,0.07,0.07,-2.16
1.236,0.60,0.29,-0.12,0.07,-0.03,-2.20
1.236,0.60,0.29,-0.12,0.07,-0.13,-2.24
1.236,0.47,0.07,0.04,0.07,-0.13,-2.24
1.237,0.47,0.07,0.04,0.08,-0.22,-2.28
1.237,0.28,-0.22,0.15,0.08,-0.22,-2.28
1.237,0.28,-0.22,0.15,0.08,-0.29,-2.31
1.237,-0.05,-0.54,0.19,0.08,-0.29,-2.31
1.237,-0.05,-0.54,0.19,0.09,-0.35,-2.35
1.237,-0.42,-0.83,0.20,0.09,-0.35,-2.35
1.238,-0.42,-0.83,0.20,0.10,-0.39,-2.37
1.238,-0.42,-0.83,0.20,0.11,-0.41,-2.39
1.24,-0.81,-1.09,0.18,0.11,-0.41,-2.39
1.241,-0.81,-1.09,0.18,0.12,-0.41,-2.40
1.243,-0.81,-1.09,0.18,0.13,-0.40,-2.41
1.244,-0.81,-1.09,0.18,0.15,-0.38,-2.39
1.245,-1.23,-1.21,0.15,0.15,-0.38,-2.39
1.247,-1.23,-1.21,0.15,0.15,-0.35,-2.37
1.247,-1.67,-1.37,0.18,0.15,-0.35,-2.37
1.251,-1.67,-1.37,0.18,0.16,-0.31,-2.33
1.251,-1.67,-1.37,0.18,0.16,-0.27,-2.27
1.251,-2.17,-1.44,0.16,0.16,-0.27,-2.27
1.255,-2.17,-1.44,0.16,0.15,-0.21,-2.21
1.256,-2.66,-1.50,0.05,0.15,-0.21,-2.21
1.256,-2.66,-1.50,0.05,0.14,-0.15,-2.12
1.26,-3.06,-1.35,0.00,0.14,-0.15,-2.12
1.268,-3.39,-1.02,0.07,0.14,-0.15,-2.12
1.268,-3.45,-0.83,0.17,0.14,-0.15,-2.12
1.272,-3.45,-0.83,0.17,0.12,-0.07,-2.02
1.273,-3.45,-0.83,0.17,0.10,0.00,-1.92
1.273,-3.45,-0.83,0.17,0.08,0.08,-1.80
1.273,-3.45,-0.83,0.17,0.06,0.16,-1.69
1.278,-3.23,-0.99,0.24,0.06,0.16,-1.69
1.278,-3.23,-0.99,0.24,0.04,0.23,-1.58
1.278,-3.23,-0.99,0.24,0.02,0.30,-1.48
1.278,-3.23,-0.99,0.24,-0.00,0.37,-1.39
1.279,-2.96,-1.20,0.28,-0.00,0.37,-1.39
1.279,-2.96,-1.20,0.28,-0.02,0.43,-1.30
1.279,-2.63,-1.26,0.33,-0.02,0.43,-1.30
1.279,-2.63,-1.26,0.33,-0.03,0.49,-1.22
1.283,-2.63,-1.26,0.33,-0.04,0.53,-1.15
1.283,-2.53,-1.24,0.35,-0.04,0.53,-1.15
1.283,-2.53,-1.24,0.35,-0.04,0.57,-1.09
1.287,-2.53,-1.24,0.35,-0.05,0.59,-1.03
1.287,-2.47,-1.09,0.37,-0.05,0.59,-1.03
1.29,-2.47,-1.09,0.37,-0.06,0.59,-0.97
1.292,-2.35,-0.92,0.45,-0.06,0.59,-0.97
1.293,-2.35,-0.92,0.45,-0.06,0.57,-0.91
1.294,-2.35,-0.92,0.45,-0.06,0.55,-0.86
1.295,-2.25,-0.66,0.49,-0.06,0.55,-0.86
1.295,-2.25,-0.66,0.49,-0.06,0.51,-0.80
1.3,-2.06,-0.42,0.44,-0.06,0.51,-0.80
1.3,-2.06,-0.42,0.44,-0.06,0.47,-0.75
1.303,-2.06,-0.42,0.44,-0.06,0.43,-0.70
1.303,-2.06,-0.42,0.44,-0.06,0.38,-0.66
1.303,-1.83,-0.20,0.40,-0.06,0.38,-0.66
1.307,-1.83,-0.20,0.40,-0.05,0.35,-0.62
1.308,-1.62,-0.12,0.28,-0.05,0.35,-0.62
1.311,-1.62,-0.12,0.28,-0.06,0.31,-0.58
1.311,-1.37,-0.08,0.18,-0.06,0.31,-0.58
1.311,-1.37,-0.08,0.18,-0.06,0.27,-0.55
1.315,-1.37,-0.08,0.18,-0.06,0.24,-0.52
1.315,-1.14,-0.08,0.08,-0.06,0.24,-0.52
1.316,-1.14,-0.08,0.08,-0.06,0.22,-0.49
1.32,-1.14,-0.08,0.08,-0.07,0.19,-0.47
1.32,-1.03,0.02,-0.04,-0.07,0.19,-0.47
1.324,-1.03,0.02,-0.04,-0.07,0.15,-0.45
1.324,-0.85,0.12,-0.12,-0.07,0.15,-0.45
1.324,-0.85,0.12,-0.12,-0.08,0.11,-0.42
1.327,-0.85,0.12,-0.12,-0.09,0.08,-0.40
1.327,-0.71,0.32,-0.21,-0.09,0.08,-0.40
1.331,-0.71,0.32,-0.21,-0.11,0.05,-0.38
1.331,-0.46,0.39,-0.35,-0.11,0.05,-0.38
1.331,-0.46,0.39,-0.35,-0.12,0.02,-0.36
1.335,-0.46,0.39,-0.35,-0.14,0.00,-0.36
1.335,-0.15,0.28,-0.46,-0.14,0.00,-0.36
1.335,-0.15,0.28,-0.46,-0.14,-0.01,-0.35
1.34,0.15,0.09,-0.57,-0.14,-0.01,-0.35
1.34,0.15,0.09,-0.57,-0.16,-0.02,-0.36
1.343,0.35,-0.01,-0.68,-0.16,-0.02,-0.36
1.344,0.35,-0.01,-0.68,-0.17,-0.01,-0.37
1.344,0.35,-0.01,-0.68,-0.17,-0.01,-0.39
1.346,0.35,-0.01,-0.68,-0.19,0.01,-0.41
1.348,0.53,-0.07,-0.81,-0.19,0.01,-0.41
1.349,0.53,-0.07,-0.81,-0.20,0.03,-0.44
1.351,0.53,-0.07,-0.81,-0.21,0.05,-0.47
1.352,0.60,-0.01,-0.98,-0.21,0.05,-0.47
1.355,0.60,-0.01,-0.98,-0.23,0.08,-0.50
1.355,0.60,-0.01,-0.98,-0.25,0.11,-0.54
1.356,0.59,0.07,-1.08,-0.25,0.11,-0.54
1.36,0.59,0.07,-1.08,-0.28,0.12,-0.57
1.362,0.58,0.10,-1.12,-0.28,0.12,-0.57
1.364,0.59,0.15,-1.14,-0.28,0.12,-0.57
1.365,0.59,0.15,-1.14,-0.30,0.13,-0.61
1.365,0.59,0.15,-1.14,-0.33,0.14,-0.65
1.368,0.59,0.15,-1.14,-0.36,0.13,-0.70
1.368,0.57,0.11,-1.08,-0.36,0.13,-0.70
1.371,0.57,0.11,-1.08,-0.39,0.12,-0.74
1.371,0.57,0.11,-1.08,-0.43,0.10,-0.79
1.372,0.55,-0.01,-1.07,-0.43,0.10,-0.79
1.378,0.57,-0.12,-1.07,-0.43,0.10,-0.79
1.395,0.57,-0.12,-1.07,-0.47,0.08,-0.84
1.395,0.57,-0.12,-1.07,-0.50,0.06,-0.88
1.395,0.50,-0.13,-1.08,-0.50,0.06,-0.88
1.395,0.50,-0.13,-1.08,-0.53,0.03,-0.92
1.396,0.50,-0.13,-1.08,-0.57,0.01,-0.96
1.396,0.39,-0.07,-1.16,-0.57,0.01,-0.96
1.396,0.39,-0.07,-1.16,-0.61,-0.01,-0.99
1.396,0.39,-0.07,-1.16,-0.64,-0.03,-1.02
1.396,0.16,0.12,-1.19,-0.64,-0.03,-1.02
1.397,0.16,0.12,-1.19,-0.68,-0.06,-1.03
1.397,-0.15,0.36,-1.20,-0.68,-0.06,-1.03
1.397,-0.15,0.36,-1.20,-0.72,-0.08,-1.03
1.397,-0.15,0.36,-1.20,-0.76,-0.12,-1.03
1.398,-0.38,0.53,-1.03,-0.76,-0.12,-1.03
1.398,-0.38,0.53,-1.03,-0.80,-0.14,-1.02
1.399,-0.86,1.05,-1.25,-0.80,-0.14,-1.02
1.399,-0.86,1.05,-1.25,-0.85,-0.14,-0.98
1.403,-0.86,1.05,-1.25,-0.89,-0.19,-0.95
1.403,-0.86,1.05,-1.25,-0.93,-0.26,-0.93
1.403,-1.12,1.04,-0.91,-0.93,-0.26,-0.93
1.407,-1.12,1.04,-0.91,-0.97,-0.34,-0.91
1.407,-0.95,0.71,-0.41,-0.97,-0.34,-0.91
1.411,-0.95,0.71,-0.41,-1.00,-0.43,-0.89
1.411,-0.95,0.71,-0.41,-1.03,-0.51,-0.88
1.411,-0.66,0.31,-0.16,-1.03,-0.51,-0.88
1.414,-0.66,0.31,-0.16,-1.05,-0.59,-0.87
1.414,-0.66,0.31,-0.16,-1.07,-0.66,-0.87
1.415,-0.36,0.02,-0.10,-1.07,-0.66,-0.87
1.419,-0.36,0.02,-0.10,-1.08,-0.72,-0.87
1.419,-0.02,-0.25,-0.19,-1.08,-0.72,-0.87
1.422,-0.02,-0.25,-0.19,-1.10,-0.77,-0.88
1.423,-0.02,-0.25,-0.19,-1.11,-0.82,-0.89
1.423,0.25,-0.36,-0.24,-1.11,-0.82,-0.89
1.427,0.25,-0.36,-0.24,-1.12,-0.86,-0.89
1.427,0.31,-0.24,-0.30,-1.12,-0.86,-0.89
1.43,0.31,-0.24,-0.30,-1.12,-0.90,-0.89
1.43,0.05,0.20,-0.24,-1.12,-0.90,-0.89
1.431,0.05,0.20,-0.24,-1.13,-0.95,-0.88
1.434,0.05,0.20,-0.24,-1.13,-0.99,-0.87
1.435,0.05,0.20,-0.24,-1.14,-1.03,-0.85
1.435,-0.24,0.55,-0.27,-1.14,-1.03,-0.85
1.439,-0.24,0.55,-0.27,-1.14,-1.06,-0.84
1.44,-0.50,0.83,-0.32,-1.14,-1.06,-0.84
1.442,-0.50,0.83,-0.32,-1.15,-1.09,-0.83
1.443,-0.50,0.83,-0.32,-1.15,-1.12,-0.81
1.443,-0.76,1.06,-0.37,-1.15,-1.12,-0.81
1.446,-0.76,1.06,-0.37,-1.16,-1.14,-0.80
1.447,-0.95,1.23,-0.41,-1.16,-1.14,-0.80
1.451,-0.95,1.23,-0.41,-1.18,-1.16,-0.77
1.451,-1.19,1.36,-0.46,-1.18,-1.16,-0.77
1.451,-1.19,1.36,-0.46,-1.19,-1.19,-0.75
1.455,-1.19,1.36,-0.46,-1.20,-1.22,-0.72
1.455,-1.19,1.36,-0.46,-1.21,-1.25,-0.69
1.455,-1.41,1.61,-0.41,-1.21,-1.25,-0.69
1.46,-1.58,1.84,-0.42,-1.21,-1.25,-0.69
1.46,-1.58,1.84,-0.42,-1.22,-1.27,-0.66
1.463,-1.58,1.84,-0.42,-1.23,-1.29,-0.63
1.463,-1.65,2.01,-0.46,-1.23,-1.29,-0.63
1.463,-1.65,2.01,-0.46,-1.24,-1.32,-0.60
1.467,-1.65,2.01,-0.46,-1.25,-1.34,-0.58
1.467,-1.67,2.21,-0.47,-1.25,-1.34,-0.58
1.471,-1.67,2.21,-0.47,-1.26,-1.36,-0.55
1.471,-1.68,2.37,-0.45,-1.26,-1.36,-0.55
1.471,-1.68,2.37,-0.45,-1.27,-1.38,-0.52
1.475,-1.68,2.37,-0.45,-1.28,-1.39,-0.50
1.477,-1.60,2.56,-0.50,-1.28,-1.39,-0.50
1.478,-1.60,2.56,-0.50,-1.29,-1.39,-0.48
1.48,-1.49,2.79,-0.54,-1.29,-1.39,-0.48
1.481,-1.49,2.79,-0.54,-1.30,-1.40,-0.46
1.484,-1.49,2.79,-0.54,-1.30,-1.39,-0.44
1.484,-1.49,2.79,-0.54,-1.30,-1.39,-0.43
1.485,-1.25,3.08,-0.52,-1.30,-1.39,-0.43
1.487,-1.25,3.08,-0.52,-1.30,-1.39,-0.41
1.492,-1.25,3.08,-0.52,-1.29,-1.39,-0.40
1.492,-0.99,3.62,-0.41,-1.29,-1.39,-0.40
1.492,-0.99,3.62,-0.41,-1.28,-1.39,-0.39
1.493,-0.75,4.18,-0.25,-1.28,-1.39,-0.39
1.495,-0.75,4.18,-0.25,-1.27,-1.40,-0.38
1.496,-0.48,4.77,-0.06,-1.27,-1.40,-0.38
1.497,-0.48,4.77,-0.06,-1.25,-1.42,-0.37
1.5,-0.48,4.77,-0.06,-1.24,-1.44,-0.38
1.5,-0.11,4.94,0.09,-1.24,-1.44,-0.38
1.503,-0.11,4.94,0.09,-1.24,-1.46,-0.38
1.504,0.29,4.71,0.18,-1.24,-1.46,-0.38
1.504,0.29,4.71,0.18,-1.23,-1.48,-0.40
1.507,0.29,4.71,0.18,-1.23,-1.50,-0.42
1.508,0.67,4.50,0.17,-1.23,-1.50,-0.42
1.511,0.67,4.50,0.17,-1.23,-1.53,-0.44
1.513,1.03,4.37,0.13,-1.23,-1.53,-0.44
1.513,1.03,4.37,0.13,-1.24,-1.54,-0.47
1.516,1.03,4.37,0.13,-1.24,-1.54,-0.50
1.516,1.26,4.44,0.01,-1.24,-1.54,-0.50
1.516,1.26,4.44,0.01,-1.25,-1.54,-0.53
1.52,1.40,4.58,-0.15,-1.25,-1.54,-0.53
1.52,1.40,4.58,-0.15,-1.26,-1.54,-0.56
1.524,1.40,4.58,-0.15,-1.27,-1.52,-0.59
1.524,1.40,4.58,-0.15,-1.28,-1.48,-0.61
1.524,1.40,5.00,-0.25,-1.28,-1.48,-0.61
1.529,1.40,5.00,-0.25,-1.29,-1.44,-0.62
1.529,1.30,5.60,-0.40,-1.29,-1.44,-0.62
1.554,1.30,5.60,-0.40,-1.30,-1.39,-0.64
1.554,1.30,5.60,-0.40,-1.30,-1.32,-0.65
1.555,1.29,5.89,-0.50,-1.30,-1.32,-0.65
1.555,1.29,5.89,-0.50,-1.31,-1.25,-0.66
1.555,1.29,5.89,-0.50,-1.31,-1.18,-0.67
1.555,1.21,6.27,-0.57,-1.31,-1.18,-0.67
1.556,1.11,6.76,-0.63,-1.31,-1.18,-0.67
1.556,1.11,6.76,-0.63,-1.30,-1.09,-0.67
1.556,1.11,6.76,-0.63,-1.30,-1.01,-0.68
1.556,1.11,6.76,-0.63,-1.29,-0.92,-0.68
1.556,1.11,6.76,-0.63,-1.28,-0.84,-0.69
1.557,1.09,7.07,-0.68,-1.28,-0.84,-0.69
1.557,1.15,7.24,-0.65,-1.28,-0.84,-0.69
1.557,1.15,7.24,-0.65,-1.27,-0.75,-0.70
1.558,1.15,7.24,-0.65,-1.25,-0.67,-0.71
1.558,1.20,7.35,-0.57,-1.25,-0.67,-0.71
1.558,1.20,7.35,-0.57,-1.23,-0.59,-0.72
1.558,1.30,7.38,-0.46,-1.23,-0.59,-0.72
1.558,1.30,7.38,-0.46,-1.20,-0.51,-0.74
1.561,1.34,7.38,-0.34,-1.20,-0.51,-0.74
1.561,1.34,7.38,-0.34,-1.18,-0.44,-0.76
1.563,1.34,7.38,-0.34,-1.15,-0.36,-0.78
1.563,1.34,7.38,-0.34,-1.11,-0.29,-0.79
1.563,1.39,7.35,-0.17,-1.11,-0.29,-0.79
1.567,1.39,7.35,-0.17,-1.08,-0.23,-0.81
1.567,1.44,7.36,-0.13,-1.08,-0.23,-0.81
1.571,1.44,7.36,-0.13,-1.04,-0.17,-0.84
1.571,1.44,7.36,-0.13,-1.00,-0.12,-0.86
1.571,1.48,7.43,-0.06,-1.00,-0.12,-0.86
1.575,1.48,7.43,-0.06,-0.97,-0.07,-0.88
1.576,1.49,7.41,0.00,-0.97,-0.07,-0.88
1.577,1.49,7.41,0.00,-0.93,-0.02,-0.90
1.58,1.49,7.49,0.03,-0.93,-0.02,-0.90
1.58,1.49,7.49,0.03,-0.89,0.03,-0.93
1.584,1.49,7.49,0.03,-0.85,0.07,-0.95
1.584,1.49,7.49,0.03,-0.81,0.11,-0.97
1.584,1.48,7.59,0.09,-0.81,0.11,-0.97
1.587,1.48,7.59,0.09,-0.77,0.15,-0.99
1.587,1.39,7.62,0.17,-0.77,0.15,-0.99
1.591,1.39,7.62,0.17,-0.73,0.19,-1.01
1.591,1.39,7.62,0.17,-0.69,0.22,-1.02
1.591,1.33,7.73,0.23,-0.69,0.22,-1.02
1.595,1.28,7.83,0.25,-0.69,0.22,-1.02
1.596,1.28,7.83,0.25,-0.65,0.25,-1.03
1.596,1.28,7.83,0.25,-0.61,0.28,-1.04
1.601,1.16,7.87,0.24,-0.61,0.28,-1.04
1.601,1.16,7.87,0.24,-0.58,0.31,-1.04
1.603,1.16,7.87,0.24,-0.55,0.33,-1.04
1.603,1.16,7.87,0.24,-0.52,0.35,-1.04
1.604,1.05,7.94,0.18,-0.52,0.35,-1.04
1.607,1.05,7.94,0.18,-0.50,0.36,-1.04
1.607,0.90,8.04,0.01,-0.50,0.36,-1.04
1.611,0.90,8.04,0.01,-0.49,0.37,-1.03
1.611,0.90,8.04,0.01,-0.49,0.38,-1.04
1.613,0.72,7.48,-0.17,-0.49,0.38,-1.04
1.615,0.72,7.48,-0.17,-0.48,0.40,-1.06
1.615,0.72,7.48,-0.17,-0.48,0.42,-1.11
1.616,0.77,5.56,-0.42,-0.48,0.42,-1.11
1.62,0.77,5.56,-0.42,-0.49,0.45,-1.17
1.62,0.94,2.31,-0.23,-0.49,0.45,-1.17
1.623,0.94,2.31,-0.23,-0.50,0.47,-1.25
1.624,0.94,2.31,-0.23,-0.51,0.47,-1.36
1.624,0.69,-1.54,-0.53,-0.51,0.47,-1.36
1.627,0.69,-1.54,-0.53,-0.52,0.45,-1.50
1.627,1.23,-4.76,-0.66,-0.52,0.45,-1.50
1.631,1.23,-4.76,-0.66,-0.53,0.41,-1.70
1.631,1.23,-4.76,-0.66,-0.53,0.33,-1.95
1.632,2.96,-7.87,-0.86,-0.53,0.33,-1.95
1.635,2.96,-7.87,-0.86,-0.50,0.23,-2.24
1.636,4.61,-12.21,-0.65,-0.50,0.23,-2.24
1.636,4.61,-12.21,-0.65,-0.46,0.13,-2.60
1.64,4.61,-12.21,-0.65,-0.38,0.01,-3.05
1.64,6.81,-18.81,0.25,-0.38,0.01,-3.05
1.645,6.81,-18.81,0.25,-0.28,-0.08,-3.54
1.645,6.81,-18.81,0.25,-0.17,-0.12,-4.06
1.646,8.92,-27.11,1.01,-0.17,-0.12,-4.06
1.647,8.92,-27.11,1.01,-0.04,-0.13,-4.57
1.648,9.84,-35.00,0.69,-0.04,-0.13,-4.57
1.652,9.84,-35.00,0.69,0.10,-0.10,-5.07
1.652,9.84,-35.00,0.69,0.26,-0.06,-5.55
1.652,9.90,-40.64,0.56,0.26,-0.06,-5.55
1.655,9.90,-40.64,0.56,0.40,-0.01,-5.96
1.655,9.90,-40.64,0.56,0.54,0.02,-6.29
1.656,8.90,-43.85,0.08,0.54,0.02,-6.29
1.66,5.72,-42.85,-0.34,0.54,0.02,-6.29
1.66,5.72,-42.85,-0.34,0.67,0.01,-6.47
1.664,5.72,-42.85,-0.34,0.78,-0.04,-6.52
1.664,1.56,-38.18,-0.64,0.78,-0.04,-6.52
1.665,1.56,-38.18,-0.64,0.86,-0.13,-6.45
1.668,1.56,-38.18,-0.64,0.93,-0.23,-6.29
1.668,-2.17,-32.33,-0.74,0.93,-0.23,-6.29
1.671,-2.17,-32.33,-0.74,0.99,-0.33,-6.04
1.671,-4.60,-26.54,-0.62,0.99,-0.33,-6.04
1.672,-4.60,-26.54,-0.62,1.03,-0.41,-5.73
1.675,-4.60,-26.54,-0.62,1.06,-0.48,-5.39
1.675,-6.15,-20.79,-0.55,1.06,-0.48,-5.39
1.676,-6.15,-20.79,-0.55,1.09,-0.53,-5.02
1.684,-7.06,-15.34,-0.48,1.09,-0.53,-5.02
1.684,-7.06,-15.34,-0.48,1.11,-0.56,-4.63
1.685,-7.06,-15.34,-0.48,1.12,-0.58,-4.24
1.707,-7.43,-10.57,-0.50,1.12,-0.58,-4.24
1.707,-7.43,-10.57,-0.50,1.13,-0.58,-3.85
1.708,-7.43,-10.57,-0.50,1.13,-0.58,-3.47
1.708,-7.66,-6.51,-0.59,1.13,-0.58,-3.47
1.708,-7.66,-6.51,-0.59,1.12,-0.57,-3.08
1.709,-7.66,-6.51,-0.59,1.11,-0.57,-2.72
1.709,-7.81,-3.23,-0.76,1.11,-0.57,-2.72
1.709,-7.81,-3.23,-0.76,1.10,-0.57,-2.37
1.71,-7.81,-3.23,-0.76,1.08,-0.58,-2.04
1.71,-7.72,-0.58,-0.85,1.08,-0.58,-2.04
1.71,-7.28,1.56,-0.90,1.08,-0.58,-2.04
1.711,-7.28,1.56,-0.90,1.06,-0.61,-1.74
1.711,-7.28,1.56,-0.90,1.03,-0.65,-1.47
1.711,-6.75,3.30,-1.01,1.03,-0.65,-1.47
1.711,-6.75,3.30,-1.01,1.00,-0.70,-1.23
1.712,-6.75,3.30,-1.01,0.96,-0.76,-1.01
1.712,-6.05,4.70,-1.20,0.96,-0.76,-1.01
1.712,-6.05,4.70,-1.20,0.87,-0.85,-0.82
1.713,-5.45,6.01,-1.90,0.87,-0.85,-0.82
1.713,-5.45,6.01,-1.90,0.73,-0.95,-0.64
1.716,-5.10,7.40,-2.96,0.73,-0.95,-0.64
1.717,-5.10,7.40,-2.96,0.55,-1.08,-0.47
1.717,-5.10,7.40,-2.96,0.32,-1.23,-0.29
1.719,-5.10,7.40,-2.96,0.08,-1.40,-0.13
1.719,-4.76,8.38,-3.55,0.08,-1.40,-0.13
1.723,-4.76,8.38,-3.55,-0.17,-1.57,0.03
1.723,-4.76,8.38,-3.55,-0.41,-1.75,0.19
1.723,-4.41,9.03,-3.73,-0.41,-1.75,0.19
1.727,-4.41,9.03,-3.73,-0.64,-1.92,0.33
1.728,-4.04,9.35,-3.54,-0.64,-1.92,0.33
1.73,-4.04,9.35,-3.54,-0.85,-2.07,0.46
1.731,-4.04,9.35,-3.54,-1.04,-2.21,0.58
1.731,-3.55,9.32,-3.07,-1.04,-2.21,0.58
1.735,-3.55,9.32,-3.07,-1.20,-2.32,0.69
1.735,-3.55,9.32,-3.07,-1.33,-2.43,0.78
1.735,-2.96,9.01,-2.46,-1.33,-2.43,0.78
1.739,-2.30,8.49,-1.79,-1.33,-2.43,0.78
1.74,-2.30,8.49,-1.79,-1.43,-2.50,0.86
1.744,-2.30,8.49,-1.79,-1.51,-2.56,0.92
1.745,-2.30,8.49,-1.79,-1.57,-2.61,0.97
1.745,-1.56,7.84,-1.19,-1.57,-2.61,0.97
1.747,-1.56,7.84,-1.19,-1.60,-2.63,1.01
1.749,-0.85,7.10,-0.64,-1.60,-2.63,1.01
1.751,-0.85,7.10,-0.64,-1.62,-2.64,1.03
1.751,-0.85,7.10,-0.64,-1.62,-2.64,1.04
1.751,-0.17,6.30,-0.16,-1.62,-2.64,1.04
1.755,-0.17,6.30,-0.16,-1.61,-2.62,1.03
1.755,0.49,5.38,0.25,-1.61,-2.62,1.03
1.755,0.49,5.38,0.25,-1.58,-2.59,1.01
1.76,1.13,4.48,0.54,-1.58,-2.59,1.01
1.76,1.13,4.48,0.54,-1.54,-2.54,0.98
1.764,1.13,4.48,0.54,-1.49,-2.49,0.94
1.764,1.13,4.48,0.54,-1.44,-2.42,0.89
1.764,1.70,3.58,0.74,-1.44,-2.42,0.89
1.767,1.70,3.58,0.74,-1.38,-2.35,0.83
1.767,2.22,2.55,0.88,-1.38,-2.35,0.83
1.771,2.22,2.55,0.88,-1.32,-2.27,0.77
1.771,2.22,2.55,0.88,-1.26,-2.18,0.70
1.771,2.72,1.55,0.96,-1.26,-2.18,0.70
1.775,2.72,1.55,0.96,-1.19,-2.08,0.62
1.775,2.72,1.55,0.96,-1.11,-1.98,0.54
1.776,3.13,0.53,1.04,-1.11,-1.98,0.54
1.78,3.55,-0.52,1.09,-1.11,-1.98,0.54
1.78,3.55,-0.52,1.09,-1.04,-1.87,0.46
1.783,3.55,-0.52,1.09,-0.96,-1.74,0.37
1.783,3.91,-1.52,1.06,-0.96,-1.74,0.37
1.785,3.91,-1.52,1.06,-0.88,-1.61,0.28
1.787,3.91,-1.52,1.06,-0.80,-1.47,0.19
1.787,4.25,-2.42,1.07,-0.80,-1.47,0.19
1.791,4.25,-2.42,1.07,-0.71,-1.32,0.09
1.791,4.25,-2.42,1.07,-0.63,-1.16,0.00
1.792,4.48,-3.22,1.02,-0.63,-1.16,0.00
1.795,4.48,-3.22,1.02,-0.54,-1.00,-0.09
1.795,4.59,-3.80,1.00,-0.54,-1.00,-0.09
1.796,4.59,-3.80,1.00,-0.46,-0.83,-0.17
1.8,4.59,-3.80,1.00,-0.37,-0.67,-0.25
1.801,4.58,-4.19,0.99,-0.37,-0.67,-0.25
1.804,4.36,-4.29,1.00,-0.37,-0.67,-0.25
1.804,4.36,-4.29,1.00,-0.28,-0.50,-0.33
1.805,4.36,-4.29,1.00,-0.20,-0.34,-0.39
1.808,4.36,-4.29,1.00,-0.11,-0.18,-0.43
1.808,3.88,-4.07,0.99,-0.11,-0.18,-0.43
1.813,3.88,-4.07,0.99,-0.04,-0.03,-0.46
1.814,3.88,-4.07,0.99,0.04,0.10,-0.47
1.814,3.14,-3.46,1.00,0.04,0.10,-0.47
1.815,3.14,-3.46,1.00,0.11,0.23,-0.47
1.816,2.37,-2.65,1.00,0.11,0.23,-0.47
1.816,2.37,-2.65,1.00,0.17,0.35,-0.46
1.821,2.37,-2.65,1.00,0.23,0.46,-0.43
1.821,1.72,-1.79,0.93,0.23,0.46,-0.43
1.824,1.72,-1.79,0.93,0.27,0.56,-0.40
1.825,1.18,-0.91,0.85,0.27,0.56,-0.40
1.825,1.18,-0.91,0.85,0.31,0.64,-0.37
1.829,1.18,-0.91,0.85,0.33,0.72,-0.33
1.83,0.82,-0.15,0.69,0.33,0.72,-0.33
1.832,0.82,-0.15,0.69,0.35,0.78,-0.28
1.832,0.82,-0.15,0.69,0.35,0.84,-0.23
1.833,0.47,0.50,0.51,0.35,0.84,-0.23
1.836,0.47,0.50,0.51,0.33,0.88,-0.18
1.836,0.22,1.03,0.26,0.33,0.88,-0.18
1.853,0.22,1.03,0.26,0.30,0.91,-0.13
1.853,0.22,1.03,0.26,0.25,0.92,-0.08
1.853,0.03,1.47,-0.01,0.25,0.92,-0.08
1.853,0.03,1.47,-0.01,0.19,0.92,-0.03
1.853,0.03,1.47,-0.01,0.11,0.91,0.02
1.854,-0.08,1.73,-0.27,0.11,0.91,0.02
1.854,-0.08,1.73,-0.27,0.03,0.89,0.06
1.854,-0.10,1.83,-0.47,0.03,0.89,0.06
1.854,0.04,1.73,-0.57,0.03,0.89,0.06
1.854,0.04,1.73,-0.57,-0.06,0.86,0.09
1.854,0.04,1.73,-0.57,-0.14,0.83,0.11
1.856,0.04,1.73,-0.57,-0.23,0.80,0.12
1.856,0.16,1.51,-0.56,-0.23,0.80,0.12
1.857,0.16,1.51,-0.56,-0.31,0.77,0.13
1.861,0.16,1.51,-0.56,-0.39,0.74,0.13
1.862,0.29,1.20,-0.46,-0.39,0.74,0.13
1.864,0.29,1.20,-0.46,-0.45,0.71,0.14
1.864,0.37,0.88,-0.29,-0.45,0.71,0.14
1.865,0.37,0.88,-0.29,-0.51,0.68,0.13
1.867,0.37,0.88,-0.29,-0.56,0.66,0.13
1.867,0.36,0.58,-0.10,-0.56,0.66,0.13
1.871,0.36,0.58,-0.10,-0.59,0.63,0.13
1.871,0.36,0.58,-0.10,-0.62,0.62,0.13
1.871,0.29,0.36,0.14,-0.62,0.62,0.13
1.875,0.29,0.36,0.14,-0.63,0.61,0.13
1.875,0.26,0.09,0.36,-0.63,0.61,0.13
1.875,0.26,0.09,0.36,-0.63,0.60,0.13
1.88,0.26,0.09,0.36,-0.63,0.59,0.13
1.88,0.16,-0.10,0.57,-0.63,0.59,0.13
1.882,0.16,-0.10,0.57,-0.62,0.59,0.13
1.883,0.16,-0.10,0.57,-0.60,0.58,0.13
1.883,0.08,-0.26,0.77,-0.60,0.58,0.13
1.885,0.08,-0.26,0.77,-0.58,0.58,0.14
1.887,0.00,-0.36,0.90,-0.58,0.58,0.14
1.89,0.00,-0.36,0.90,-0.55,0.59,0.14
1.892,0.00,-0.36,0.90,-0.51,0.59,0.15
1.892,-0.08,-0.44,1.03,-0.51,0.59,0.15
1.897,-0.08,-0.44,1.03,-0.48,0.59,0.16
1.898,-0.08,-0.44,1.03,-0.44,0.59,0.16
1.898,-0.15,-0.52,1.12,-0.44,0.59,0.16
1.9,-0.15,-0.52,1.12,-0.40,0.60,0.17
1.9,-0.25,-0.55,1.18,-0.40,0.60,0.17
1.904,-0.25,-0.55,1.18,-0.35,0.60,0.18
1.904,-0.31,-0.55,1.20,-0.35,0.60,0.18
1.904,-0.31,-0.55,1.20,-0.31,0.60,0.19
1.907,-0.31,-0.55,1.20,-0.26,0.61,0.20
1.908,-0.42,-0.50,1.21,-0.26,0.61,0.20
1.911,-0.42,-0.50,1.21,-0.22,0.61,0.21
1.913,-0.42,-0.50,1.21,-0.18,0.61,0.23
1.913,-0.48,-0.49,1.22,-0.18,0.61,0.23
1.917,-0.48,-0.49,1.22,-0.14,0.61,0.24
1.917,-0.56,-0.43,1.21,-0.14,0.61,0.24
1.918,-0.56,-0.43,1.21,-0.10,0.60,0.25
1.92,-0.58,-0.40,1.15,-0.10,0.60,0.25
1.921,-0.58,-0.40,1.15,-0.06,0.60,0.26
1.924,-0.58,-0.40,1.15,-0.03,0.59,0.26
1.924,-0.53,-0.37,1.06,-0.03,0.59,0.26
1.924,-0.53,-0.37,1.06,0.00,0.58,0.27
1.928,-0.53,-0.37,1.06,0.03,0.57,0.28
1.928,-0.52,-0.37,1.00,0.03,0.57,0.28
1.933,-0.52,-0.37,1.00,0.05,0.56,0.28
1.934,-0.52,-0.37,1.00,0.07,0.55,0.28
1.934,-0.48,-0.30,0.91,0.07,0.55,0.28
1.936,-0.48,-0.30,0.91,0.09,0.53,0.28
1.936,-0.48,-0.30,0.91,0.10,0.52,0.27
1.936,-0.47,-0.24,0.80,0.10,0.52,0.27
1.941,-0.40,-0.24,0.74,0.10,0.52,0.27
1.941,-0.40,-0.24,0.74,0.11,0.50,0.27
1.944,-0.40,-0.24,0.74,0.12,0.48,0.27
1.944,-0.40,-0.24,0.74,0.12,0.46,0.26
1.944,-0.38,-0.16,0.65,0.12,0.46,0.26
1.947,-0.38,-0.16,0.65,0.13,0.44,0.25
1.947,-0.37,-0.12,0.59,0.13,0.44,0.25
1.95,-0.37,-0.12,0.59,0.13,0.41,0.25
1.953,-0.37,-0.12,0.59,0.13,0.39,0.24
1.953,-0.36,-0.07,0.51,0.13,0.39,0.24
1.956,-0.36,-0.07,0.51,0.13,0.37,0.23
1.956,-0.34,-0.08,0.47,0.13,0.37,0.23
1.956,-0.34,-0.08,0.47,0.13,0.35,0.22
1.96,-0.34,-0.04,0.44,0.13,0.35,0.22
1.961,-0.34,-0.04,0.44,0.13,0.32,0.22
1.963,-0.34,-0.04,0.44,0.13,0.30,0.21
1.964,-0.34,-0.04,0.44,0.12,0.28,0.20
1.964,-0.32,-0.07,0.39,0.12,0.28,0.20
1.969,-0.30,-0.04,0.36,0.12,0.28,0.20
1.969,-0.30,-0.04,0.36,0.12,0.26,0.20
1.972,-0.30,-0.04,0.36,0.12,0.23,0.19
1.973,-0.30,-0.04,0.36,0.11,0.21,0.19
1.973,-0.32,-0.04,0.35,0.11,0.21,0.19
1.976,-0.32,-0.04,0.35,0.11,0.19,0.19
1.977,-0.32,-0.03,0.34,0.11,0.19,0.19
1.977,-0.32,-0.03,0.34,0.11,0.17,0.18
1.981,-0.32,-0.03,0.34,0.11,0.15,0.18
1.982,-0.35,-0.04,0.33,0.11,0.15,0.18
1.984,-0.35,-0.04,0.33,0.11,0.13,0.19
1.985,-0.35,-0.04,0.33,0.11,0.11,0.19
1.986,-0.38,-0.03,0.32,0.11,0.11,0.19
1.988,-0.38,-0.03,0.32,0.11,0.09,0.19
1.988,-0.38,-0.03,0.30,0.11,0.09,0.19
1.992,-0.38,-0.03,0.30,0.11,0.08,0.19
2.01,-0.38,-0.03,0.30,0.12,0.06,0.20
2.01,-0.36,-0.05,0.32,0.12,0.06,0.20
2.01,-0.36,-0.05,0.32,0.12,0.05,0.20
2.01,-0.36,-0.05,0.32,0.12,0.03,0.20
2.011,-0.34,-0.08,0.30,0.12,0.03,0.20
2.011,-0.32,-0.07,0.28,0.12,0.03,0.20
2.011,-0.32,-0.07,0.28,0.13,0.02,0.21
2.011,-0.32,-0.07,0.28,0.13,0.01,0.21
2.011,-0.28,-0.10,0.27,0.13,0.01,0.21
2.011,-0.28,-0.10,0.27,0.14,0.00,0.21
2.011,-0.25,-0.14,0.25,0.14,0.00,0.21
2.011,-0.25,-0.14,0.25,0.14,-0.01,0.21
2.012,-0.25,-0.14,0.25,0.15,-0.02,0.22
2.014,-0.25,-0.14,0.25,0.15,-0.02,0.22
2.015,-0.20,-0.14,0.23,0.15,-0.02,0.22
2.016,-0.20,-0.14,0.23,0.15,-0.03,0.22
2.016,-0.12,-0.15,0.21,0.15,-0.03,0.22
2.016,-0.12,-0.15,0.21,0.16,-0.03,0.22
2.02,-0.12,-0.19,0.18,0.16,-0.03,0.22
2.02,-0.12,-0.19,0.18,0.16,-0.04,0.22
2.023,-0.12,-0.19,0.18,0.17,-0.04,0.22
2.024,-0.08,-0.17,0.15,0.17,-0.04,0.22
2.024,-0.08,-0.17,0.15,0.17,-0.05,0.21
2.027,-0.08,-0.17,0.15,0.17,-0.05,0.21
2.027,-0.04,-0.17,0.13,0.17,-0.05,0.21
2.032,-0.03,-0.18,0.07,0.17,-0.05,0.21
2.033,-0.03,-0.18,0.07,0.17,-0.05,0.21
2.033,-0.03,-0.18,0.07,0.17,-0.05,0.21
2.035,-0.03,-0.18,0.07,0.17,-0.06,0.21
2.036,0.02,-0.18,0.04,0.17,-0.06,0.21
2.036,0.02,-0.18,0.04,0.17,-0.06,0.21
2.04,0.07,-0.16,-0.01,0.17,-0.06,0.21
2.04,0.07,-0.16,-0.01,0.17,-0.06,0.20
2.042,0.07,-0.16,-0.01,0.16,-0.06,0.20
2.044,0.07,-0.16,-0.01,0.16,-0.05,0.20
2.045,0.10,-0.14,-0.06,0.16,-0.05,0.20
2.047,0.10,-0.14,-0.06,0.16,-0.05,0.20
2.048,0.13,-0.14,-0.09,0.16,-0.05,0.20
2.05,0.13,-0.14,-0.09,0.15,-0.05,0.19
2.052,0.13,-0.14,-0.09,0.14,-0.04,0.19
2.052,0.20,-0.11,-0.15,0.14,-0.04,0.19
2.055,0.20,-0.11,-0.15,0.13,-0.04,0.18
2.055,0.20,-0.11,-0.15,0.12,-0.03,0.18
2.056,0.22,-0.08,-0.19,0.12,-0.03,0.18
2.06,0.23,-0.07,-0.24,0.12,-0.03,0.18
2.06,0.23,-0.07,-0.24,0.12,-0.02,0.17
2.063,0.23,-0.07,-0.24,0.10,-0.02,0.17
2.064,0.26,-0.03,-0.26,0.10,-0.02,0.17
2.064,0.26,-0.03,-0.26,0.09,-0.01,0.16
2.068,0.29,0.02,-0.29,0.09,-0.01,0.16
2.069,0.29,0.02,-0.29,0.08,-0.00,0.16
2.071,0.29,0.02,-0.29,0.07,0.01,0.15
2.072,0.29,0.02,-0.29,0.06,0.02,0.15
2.072,0.32,0.04,-0.33,0.06,0.02,0.15
2.075,0.32,0.04,-0.33,0.05,0.03,0.15
2.076,0.36,0.02,-0.35,0.05,0.03,0.15
2.079,0.36,0.02,-0.35,0.04,0.05,0.14
2.081,0.36,0.02,-0.35,0.02,0.06,0.14
2.081,0.36,0.05,-0.37,0.02,0.06,0.14
2.083,0.36,0.05,-0.37,0.01,0.08,0.13
2.083,0.39,0.06,-0.39,0.01,0.08,0.13
2.084,0.39,0.06,-0.39,-0.00,0.09,0.13
2.088,0.39,0.06,-0.39,-0.01,0.11,0.12
2.088,0.38,0.07,-0.40,-0.01,0.11,0.12
2.092,0.38,0.07,-0.40,-0.03,0.12,0.12
2.092,0.38,0.07,-0.40,-0.04,0.14,0.11
2.092,0.42,0.06,-0.40,-0.04,0.14,0.11
2.098,0.42,0.06,-0.40,-0.05,0.16,0.11
2.098,0.41,0.08,-0.39,-0.05,0.16,0.11
2.099,0.41,0.08,-0.39,-0.06,0.17,0.11
2.1,0.39,0.09,-0.38,-0.06,0.17,0.11
2.1,0.39,0.09,-0.38,-0.07,0.19,0.10
2.104,0.39,0.09,-0.38,-0.08,0.20,0.09
2.105,0.39,0.09,-0.38,-0.09,0.21,0.09
2.105,0.37,0.09,-0.36,-0.09,0.21,0.09
2.109,0.37,0.09,-0.36,-0.10,0.23,0.09
2.109,0.35,0.10,-0.30,-0.10,0.23,0.09
2.112,0.35,0.10,-0.30,-0.10,0.24,0.08
2.112,0.35,0.10,-0.30,-0.11,0.25,0.08
2.112,0.32,0.09,-0.27,-0.11,0.25,0.08
2.119,0.32,0.09,-0.27,-0.11,0.27,0.08
2.12,0.29,0.09,-0.25,-0.11,0.27,0.08
2.12,0.29,0.09,-0.25,-0.11,0.28,0.08
2.121,0.29,0.09,-0.25,-0.11,0.29,0.07
2.122,0.25,0.08,-0.18,-0.11,0.29,0.07
2.124,0.25,0.08,-0.18,-0.11,0.30,0.07
2.124,0.25,0.08,-0.18,-0.11,0.31,0.07
2.124,0.20,0.10,-0.15,-0.11,0.31,0.07
2.128,0.20,0.10,-0.15,-0.11,0.32,0.07
2.129,0.17,0.08,-0.12,-0.11,0.32,0.07
2.131,0.17,0.08,-0.12,-0.10,0.33,0.08
2.132,0.12,0.05,-0.06,-0.10,0.33,0.08
2.135,0.12,0.05,-0.06,-0.10,0.34,0.08
2.135,0.12,0.05,-0.06,-0.09,0.34,0.08
2.136,0.12,0.02,-0.02,-0.09,0.34,0.08
2.141,0.12,0.02,-0.02,-0.09,0.34,0.08
2.141,0.12,0.02,-0.02,-0.09,0.34,0.08
2.142,0.09,0.01,0.01,-0.09,0.34,0.08
2.144,0.09,0.01,0.01,-0.08,0.34,0.08
2.145,0.09,-0.02,0.03,-0.08,0.34,0.08
2.167,0.09,-0.02,0.03,-0.07,0.34,0.08
2.168,0.06,-0.00,0.03,-0.07,0.34,0.08
2.168,0.06,-0.00,0.03,-0.07,0.34,0.09
2.168,0.06,-0.00,0.03,-0.06,0.33,0.09
2.169,0.10,-0.02,0.04,-0.06,0.33,0.09
2.169,0.10,-0.02,0.04,-0.05,0.33,0.09
2.169,0.10,-0.02,0.04,-0.05,0.32,0.09
2.17,0.14,-0.00,0.05,-0.05,0.32,0.09
2.17,0.12,-0.02,0.05,-0.05,0.32,0.09
2.17,0.12,-0.02,0.05,-0.05,0.31,0.09
2.171,0.12,-0.02,0.05,-0.05,0.30,0.08
2.171,0.12,-0.02,0.05,-0.04,0.29,0.08
2.171,0.12,-0.02,0.05,-0.04,0.28,0.08
2.171,0.14,-0.03,0.02,-0.04,0.28,0.08
2.172,0.14,-0.03,0.02,-0.03,0.27,0.08
2.172,0.16,-0.03,0.02,-0.03,0.27,0.08
2.172,0.16,-0.03,0.02,-0.03,0.26,0.08
2.172,0.16,-0.03,0.02,-0.03,0.25,0.07
2.173,0.18,-0.01,0.01,-0.03,0.25,0.07
2.176,0.18,-0.01,0.01,-0.03,0.24,0.07
2.177,0.20,-0.05,0.00,-0.03,0.24,0.07
2.183,0.20,-0.05,0.00,-0.03,0.23,0.06
2.184,0.20,-0.03,-0.02,-0.03,0.23,0.06
2.184,0.20,-0.03,-0.02,-0.03,0.22,0.06
2.185,0.22,-0.05,-0.05,-0.03,0.22,0.06
2.185,0.22,-0.05,-0.05,-0.04,0.20,0.05
2.185,0.22,-0.05,-0.05,-0.04,0.19,0.05
2.187,0.23,-0.04,-0.04,-0.04,0.19,0.05
2.187,0.23,-0.04,-0.04,-0.05,0.18,0.04
2.19,0.23,-0.04,-0.04,-0.05,0.16,0.04
2.191,0.23,-0.04,-0.04,-0.05,0.15,0.03
2.191,0.22,-0.07,-0.05,-0.05,0.15,0.03
2.194,0.22,-0.07,-0.05,-0.05,0.13,0.03
2.195,0.21,-0.08,-0.06,-0.05,0.13,0.03
2.2,0.21,-0.08,-0.06,-0.06,0.12,0.02
2.2,0.23,-0.06,-0.06,-0.06,0.12,0.02
2.2,0.23,-0.06,-0.06,-0.06,0.10,0.01
2.203,0.23,-0.06,-0.06,-0.07,0.09,0.01
2.203,0.23,-0.06,-0.06,-0.07,0.07,0.00
2.204,0.19,-0.06,-0.04,-0.07,0.07,0.00
2.207,0.16,-0.09,-0.05,-0.07,0.07,0.00
2.207,0.16,-0.09,-0.05,-0.08,0.06,0.00
2.21,0.16,-0.09,-0.05,-0.08,0.05,-0.00
2.211,0.16,-0.09,-0.05,-0.08,0.04,-0.00
2.211,0.13,-0.08,-0.04,-0.08,0.04,-0.00
2.214,0.13,-0.08,-0.04,-0.09,0.02,-0.01
2.215,0.07,-0.06,-0.03,-0.09,0.02,-0.01
2.219,0.07,-0.06,-0.03,-0.09,0.01,-0.01
2.219,0.07,-0.06,-0.03,-0.09,-0.00,-0.01
2.219,0.07,-0.06,-0.04,-0.09,-0.00,-0.01
2.223,0.07,-0.06,-0.04,-0.10,-0.01,-0.01
2.223,0.03,-0.02,0.00,-0.10,-0.01,-0.01
2.223,0.03,-0.02,0.00,-0.10,-0.02,-0.01
2.228,0.03,-0.02,0.00,-0.10,-0.03,-0.01
2.228,-0.01,-0.02,0.01,-0.10,-0.03,-0.01
2.231,-0.01,-0.02,0.01,-0.10,-0.04,-0.01
2.232,-0.01,-0.02,0.01,-0.10,-0.04,-0.01
2.232,-0.05,0.01,0.03,-0.10,-0.04,-0.01
2.234,-0.05,0.01,0.03,-0.10,-0.05,-0.01
2.236,-0.05,0.02,0.05,-0.10,-0.05,-0.01
2.239,-0.05,0.02,0.05,-0.10,-0.05,-0.01
2.239,-0.05,0.02,0.05,-0.10,-0.06,-0.01
2.24,-0.05,0.05,0.08,-0.10,-0.06,-0.01
2.243,-0.05,0.05,0.08,-0.09,-0.06,-0.01
2.243,-0.08,0.02,0.08,-0.09,-0.06,-0.01
2.244,-0.08,0.02,0.08,-0.09,-0.06,-0.01
2.248,-0.08,0.02,0.08,-0.09,-0.06,-0.00
2.249,-0.11,0.05,0.10,-0.09,-0.06,-0.00
2.251,-0.11,0.05,0.10,-0.08,-0.06,-0.00
2.252,-0.10,0.08,0.09,-0.08,-0.06,-0.00
2.252,-0.10,0.08,0.09,-0.08,-0.06,-0.00
2.255,-0.10,0.08,0.09,-0.08,-0.06,-0.00
2.255,-0.10,0.07,0.11,-0.08,-0.06,-0.00
2.259,-0.10,0.07,0.11,-0.07,-0.05,-0.00
2.26,-0.10,0.07,0.11,-0.07,-0.05,-0.00
2.26,-0.11,0.06,0.13,-0.07,-0.05,-0.00
2.263,-0.11,0.06,0.13,-0.06,-0.04,-0.00
2.264,-0.12,0.06,0.11,-0.06,-0.04,-0.00
2.264,-0.12,0.06,0.11,-0.05,-0.04,-0.00
2.267,-0.12,0.06,0.11,-0.05,-0.03,-0.00
2.268,-0.14,0.09,0.12,-0.05,-0.03,-0.00
2.271,-0.14,0.09,0.12,-0.04,-0.02,-0.00
2.272,-0.14,0.09,0.12,-0.03,-0.01,-0.00
2.272,-0.15,0.08,0.14,-0.03,-0.01,-0.00
2.275,-0.15,0.08,0.14,-0.02,-0.00,0.00
2.275,-0.14,0.08,0.12,-0.02,-0.00,0.00
2.279,-0.14,0.08,0.12,-0.01,0.00,0.00
2.279,-0.14,0.08,0.12,-0.01,0.01,0.00
2.279,-0.15,0.05,0.12,-0.01,0.01,0.00
2.284,-0.15,0.05,0.12,0.00,0.02,0.00
2.285,-0.16,0.04,0.11,0.00,0.02,0.00
2.285,-0.16,0.04,0.11,0.01,0.03,0.00
2.287,-0.19,0.03,0.10,0.01,0.03,0.00
2.288,-0.19,0.03,0.10,0.02,0.04,0.01
2.291,-0.19,0.03,0.10,0.03,0.05,0.01
2.292,-0.19,0.03,0.10,0.03,0.06,0.01
2.292,-0.19,0.04,0.10,0.03,0.06,0.01
2.295,-0.19,0.04,0.10,0.04,0.07,0.01
2.296,-0.22,0.04,0.09,0.04,0.07,0.01
2.299,-0.22,0.04,0.09,0.05,0.08,0.01
2.323,-0.22,0.04,0.09,0.06,0.09,0.01
2.323,-0.21,0.01,0.07,0.06,0.09,0.01
2.323,-0.21,0.01,0.07,0.06,0.10,0.01
2.324,-0.21,0.01,0.07,0.07,0.11,0.02
2.324,-0.22,0.03,0.06,0.07,0.11,0.02
2.324,-0.22,0.03,0.06,0.08,0.12,0.02
2.324,-0.23,-0.01,0.05,0.08,0.12,0.02
2.325,-0.23,-0.01,0.05,0.08,0.13,0.02
2.325,-0.22,-0.05,0.01,0.08,0.13,0.02
2.325,-0.22,-0.05,0.01,0.09,0.14,0.02
2.326,-0.22,-0.05,0.01,0.09,0.15,0.02
2.326,-0.24,-0.04,0.00,0.09,0.15,0.02
2.326,-0.24,-0.04,0.00,0.10,0.16,0.02
2.326,-0.24,-0.04,0.00,0.11,0.17,0.02
2.327,-0.22,-0.06,-0.02,0.11,0.17,0.02
2.327,-0.22,-0.06,-0.02,0.11,0.18,0.03
2.327,-0.22,-0.04,-0.07,0.11,0.18,0.03
2.327,-0.22,-0.04,-0.07,0.11,0.19,0.03
2.328,-0.22,-0.04,-0.07,0.11,0.20,0.03
2.328,-0.22,-0.06,-0.08,0.11,0.20,0.03
2.332,-0.22,-0.06,-0.08,0.11,0.21,0.03
2.333,-0.21,-0.06,-0.10,0.11,0.21,0.03
2.333,-0.21,-0.06,-0.10,0.12,0.22,0.03
2.337,-0.21,-0.06,-0.10,0.11,0.23,0.03
2.337,-0.21,-0.07,-0.12,0.11,0.23,0.03
2.34,-0.21,-0.07,-0.12,0.12,0.24,0.03
2.34,-0.23,-0.06,-0.17,0.12,0.24,0.03
2.34,-0.23,-0.06,-0.17,0.11,0.25,0.03
2.348,-0.23,-0.06,-0.17,0.11,0.26,0.03
2.349,-0.23,-0.06,-0.17,0.10,0.26,0.03
2.349,-0.23,-0.07,-0.18,0.10,0.26,0.03
2.349,-0.23,-0.07,-0.18,0.10,0.27,0.03
2.349,-0.22,-0.07,-0.20,0.10,0.27,0.03
2.349,-0.22,-0.07,-0.20,0.10,0.27,0.03
2.352,-0.24,-0.07,-0.25,0.10,0.27,0.03
2.352,-0.24,-0.07,-0.25,0.09,0.28,0.03
2.357,-0.24,-0.07,-0.25,0.08,0.28,0.03
2.359,-0.24,-0.07,-0.25,0.07,0.29,0.03
2.364,-0.24,-0.07,-0.25,0.06,0.29,0.03
2.364,-0.24,-0.07,-0.27,0.06,0.29,0.03
2.364,-0.23,-0.09,-0.30,0.06,0.29,0.03
2.369,-0.23,-0.10,-0.31,0.06,0.29,0.03
2.369,-0.28,-0.10,-0.32,0.06,0.29,0.03
2.37,-0.28,-0.10,-0.32,0.05,0.29,0.03
2.37,-0.28,-0.10,-0.32,0.03,0.29,0.03
2.372,-0.28,-0.10,-0.32,0.03,0.29,0.03
2.372,-0.28,-0.10,-0.32,0.02,0.29,0.03
2.373,-0.28,-0.10,-0.32,0.01,0.29,0.03
2.374,-0.28,-0.10,-0.32,-0.00,0.29,0.03
2.374,-0.28,-0.10,-0.32,-0.01,0.28,0.03
2.375,-0.29,-0.14,-0.32,-0.01,0.28,0.03
2.379,-0.29,-0.14,-0.32,-0.03,0.28,0.03
2.379,-0.29,-0.16,-0.31,-0.03,0.28,0.03
2.379,-0.29,-0.16,-0.31,-0.04,0.27,0.03
2.383,-0.29,-0.16,-0.31,-0.05,0.27,0.03
2.383,-0.29,-0.16,-0.31,-0.06,0.26,0.03
2.383,-0.32,-0.19,-0.27,-0.06,0.26,0.03
2.388,-0.32,-0.18,-0.24,-0.06,0.26,0.03
2.388,-0.32,-0.18,-0.24,-0.08,0.26,0.03
2.391,-0.32,-0.18,-0.24,-0.08,0.25,0.03
2.391,-0.32,-0.18,-0.24,-0.09,0.25,0.03
2.391,-0.33,-0.16,-0.20,-0.09,0.25,0.03
2.395,-0.33,-0.16,-0.20,-0.10,0.24,0.03
2.395,-0.36,-0.18,-0.18,-0.10,0.24,0.03
2.399,-0.36,-0.18,-0.18,-0.11,0.24,0.04
2.4,-0.36,-0.18,-0.18,-0.11,0.23,0.04
2.4,-0.37,-0.15,-0.15,-0.11,0.23,0.04
2.403,-0.37,-0.15,-0.15,-0.12,0.23,0.04
2.403,-0.37,-0.15,-0.15,-0.11,0.22,0.05
2.403,-0.36,-0.15,-0.12,-0.11,0.22,0.05
2.407,-0.36,-0.15,-0.12,-0.11,0.22,0.05
2.408,-0.37,-0.13,-0.06,-0.11,0.22,0.05
2.411,-0.37,-0.13,-0.06,-0.11,0.22,0.05
2.411,-0.37,-0.13,-0.06,-0.11,0.22,0.05
2.411,-0.38,-0.08,-0.03,-0.11,0.22,0.05
2.416,-0.38,-0.08,-0.03,-0.10,0.21,0.06
2.417,-0.38,-0.08,0.00,-0.10,0.21,0.06
2.42,-0.38,-0.08,0.00,-0.10,0.21,0.06
2.42,-0.38,-0.08,0.00,-0.09,0.21,0.06
2.42,-0.36,-0.03,0.01,-0.09,0.21,0.06
2.424,-0.36,-0.03,0.01,-0.08,0.21,0.06
2.424,-0.35,0.00,0.06,-0.08,0.21,0.06
2.424,-0.35,0.00,0.06,-0.08,0.21,0.07
2.428,-0.34,0.04,0.08,-0.08,0.21,0.07
2.428,-0.34,0.04,0.08,-0.07,0.21,0.07
2.431,-0.34,0.04,0.08,-0.06,0.21,0.07
2.431,-0.34,0.04,0.08,-0.05,0.21,0.07
2.431,-0.36,0.06,0.09,-0.05,0.21,0.07
2.437,-0.33,0.06,0.09,-0.05,0.21,0.07
2.438,-0.33,0.06,0.09,-0.04,0.21,0.07
2.44,-0.33,0.06,0.09,-0.03,0.21,0.07
2.44,-0.33,0.06,0.09,-0.02,0.22,0.07
2.441,-0.31,0.10,0.08,-0.02,0.22,0.07
2.443,-0.31,0.10,0.08,-0.01,0.22,0.07
2.444,-0.31,0.10,0.08,0.00,0.22,0.07
2.445,-0.30,0.12,0.07,0.00,0.22,0.07
2.449,-0.30,0.12,0.07,0.01,0.22,0.07
2.449,-0.30,0.12,0.06,0.01,0.22,0.07
2.451,-0.30,0.12,0.06,0.02,0.22,0.07
2.451,-0.28,0.10,0.03,0.02,0.22,0.07
2.465,-0.28,0.10,0.03,0.03,0.22,0.07
2.465,-0.28,0.10,0.03,0.04,0.22,0.07
2.465,-0.28,0.12,0.04,0.04,0.22,0.07
2.465,-0.28,0.12,0.04,0.05,0.22,0.06
2.465,-0.25,0.12,-0.00,0.05,0.22,0.06
2.465,-0.25,0.12,-0.00,0.05,0.22,0.06
2.465,-0.25,0.12,-0.00,0.06,0.22,0.06
2.466,-0.25,0.12,-0.00,0.06,0.22,0.06
2.466,-0.24,0.07,-0.03,0.06,0.22,0.06
2.47,-0.24,0.06,-0.05,0.06,0.22,0.06
2.47,-0.24,0.06,-0.05,0.07,0.22,0.06
2.473,-0.24,0.06,-0.05,0.07,0.22,0.05
2.473,-0.24,0.06,-0.05,0.08,0.22,0.05
2.473,-0.22,0.06,-0.09,0.08,0.22,0.05
2.475,-0.22,0.06,-0.09,0.08,0.22,0.05
2.476,-0.19,-0.01,-0.11,0.08,0.22,0.05
2.479,-0.19,-0.01,-0.11,0.08,0.22,0.05
2.479,-0.17,-0.01,-0.14,0.08,0.22,0.05
2.48,-0.17,-0.01,-0.14,0.09,0.22,0.04
2.482,-0.17,-0.01,-0.14,0.08,0.22,0.04
2.483,-0.17,-0.02,-0.17,0.08,0.22,0.04
2.485,-0.17,-0.02,-0.17,0.08,0.21,0.04
2.487,-0.17,-0.02,-0.17,0.08,0.21,0.03
2.487,-0.17,-0.03,-0.21,0.08,0.21,0.03
2.49,-0.17,-0.03,-0.21,0.08,0.21,0.03
2.491,-0.17,-0.07,-0.19,0.08,0.21,0.03
2.491,-0.17,-0.07,-0.19,0.08,0.20,0.03
2.495,-0.17,-0.07,-0.19,0.07,0.20,0.03
2.495,-0.15,-0.06,-0.23,0.07,0.20,0.03
2.499,-0.15,-0.06,-0.23,0.07,0.19,0.02
2.499,-0.15,-0.06,-0.23,0.07,0.19,0.02
2.499,-0.13,-0.06,-0.24,0.07,0.19,0.02
2.503,-0.13,-0.06,-0.24,0.06,0.19,0.02
2.503,-0.14,-0.09,-0.25,0.06,0.19,0.02
2.503,-0.14,-0.09,-0.25,0.06,0.19,0.02
2.507,-0.14,-0.09,-0.25,0.06,0.18,0.02
2.508,-0.14,-0.07,-0.23,0.06,0.18,0.02
2.511,-0.14,-0.07,-0.23,0.05,0.18,0.02
2.511,-0.14,-0.07,-0.23,0.05,0.17,0.02
2.512,-0.12,-0.03,-0.25,0.05,0.17,0.02
2.516,-0.12,-0.03,-0.25,0.05,0.17,0.01
2.516,-0.12,-0.02,-0.24,0.05,0.17,0.01
2.52,-0.12,-0.02,-0.24,0.05,0.17,0.01
2.52,-0.14,0.00,-0.22,0.05,0.17,0.01
2.52,-0.14,0.00,-0.22,0.05,0.17,0.01
2.524,-0.14,0.00,-0.22,0.04,0.17,0.01
2.524,-0.14,0.06,-0.21,0.04,0.17,0.01
2.524,-0.14,0.06,-0.21,0.04,0.16,0.01
2.528,-0.14,0.06,-0.21,0.04,0.16,0.01
2.528,-0.12,0.05,-0.20,0.04,0.16,0.01
2.531,-0.12,0.05,-0.20,0.05,0.16,0.01
2.533,-0.12,0.05,-0.20,0.05,0.16,0.01
2.534,-0.12,0.07,-0.19,0.05,0.16,0.01
2.536,-0.12,0.07,-0.19,0.05,0.16,0.01
2.538,-0.09,0.08,-0.19,0.05,0.16,0.01
2.539,-0.09,0.08,-0.19,0.06,0.15,0.01
2.54,-0.11,0.08,-0.16,0.06,0.15,0.01
2.54,-0.11,0.08,-0.16,0.06,0.16,0.01
2.544,-0.11,0.08,-0.16,0.07,0.16,0.01
2.545,-0.11,0.08,-0.16,0.07,0.16,0.01
2.545,-0.09,0.07,-0.15,0.07,0.16,0.01
2.548,-0.09,0.07,-0.15,0.08,0.16,0.01
2.548,-0.07,0.10,-0.16,0.08,0.16,0.01
2.55,-0.07,0.10,-0.16,0.08,0.16,0.01
2.553,-0.06,0.09,-0.18,0.08,0.16,0.01
2.554,-0.06,0.09,-0.18,0.09,0.16,0.01
2.555,-0.06,0.09,-0.18,0.09,0.17,0.01
2.556,-0.06,0.09,-0.19,0.09,0.17,0.01
2.56,-0.06,0.09,-0.19,0.09,0.17,0.01
2.561,-0.06,0.09,-0.19,0.10,0.17,0.01
2.561,-0.07,0.07,-0.21,0.10,0.17,0.01
2.564,-0.04,0.09,-0.22,0.10,0.17,0.01
2.564,-0.04,0.09,-0.22,0.11,0.17,0.01
2.565,-0.04,0.09,-0.22,0.11,0.17,0.01
2.569,-0.04,0.09,-0.22,0.11,0.18,0.02
2.57,-0.05,0.07,-0.24,0.11,0.18,0.02
2.571,-0.05,0.07,-0.24,0.11,0.18,0.02
2.572,-0.05,0.07,-0.24,0.11,0.18,0.02
2.572,-0.03,0.08,-0.26,0.11,0.18,0.02
2.577,-0.03,0.08,-0.26,0.12,0.18,0.02
2.577,-0.02,0.08,-0.31,0.12,0.18,0.02
2.579,-0.02,0.08,-0.31,0.12,0.18,0.02
2.58,0.01,0.05,-0.32,0.12,0.18,0.02
2.58,0.01,0.05,-0.32,0.12,0.19,0.02
2.583,0.01,0.05,-0.32,0.11,0.19,0.02
2.585,0.02,0.06,-0.35,0.11,0.19,0.02
2.585,0.02,0.06,-0.35,0.11,0.19,0.02
2.588,0.02,0.06,-0.35,0.11,0.19,0.02
2.588,0.05,0.05,-0.37,0.11,0.19,0.02
2.591,0.05,0.05,-0.37,0.11,0.19,0.02
2.591,0.05,0.05,-0.37,0.10,0.19,0.01
2.592,0.05,0.03,-0.38,0.10,0.19,0.01
2.597,0.05,0.03,-0.38,0.10,0.18,0.01
2.598,0.05,0.01,-0.40,0.10,0.18,0.01
2.601,0.05,0.01,-0.40,0.09,0.18,0.01
2.602,0.07,0.00,-0.42,0.09,0.18,0.01
2.605,0.07,0.00,-0.42,0.09,0.18,0.01
2.605,0.07,0.00,-0.42,0.08,0.18,0.01
2.605,0.07,0.00,-0.42,0.08,0.18,0.01
2.605,0.06,-0.02,-0.44,0.08,0.18,0.01
2.623,0.06,-0.02,-0.44,0.07,0.18,0.01
2.623,0.12,-0.03,-0.43,0.07,0.18,0.01
2.623,0.12,-0.03,-0.43,0.06,0.18,0.01
2.623,0.12,-0.03,-0.43,0.06,0.18,0.01
2.623,0.14,-0.04,-0.43,0.06,0.18,0.01
2.623,0.14,-0.04,-0.43,0.05,0.18,0.01
2.624,0.14,-0.06,-0.42,0.05,0.18,0.01
2.624,0.14,-0.06,-0.42,0.05,0.18,0.01
2.624,0.14,-0.04,-0.43,0.05,0.18,0.01
2.624,0.14,-0.04,-0.43,0.04,0.17,0.01
2.624,0.14,-0.04,-0.43,0.04,0.17,0.01
2.624,0.14,-0.05,-0.42,0.04,0.17,0.01
2.624,0.14,-0.05,-0.42,0.03,0.17,0.01
2.628,0.14,-0.05,-0.42,0.03,0.17,0.01
2.628,0.14,-0.01,-0.42,0.03,0.17,0.01
2.631,0.14,-0.01,-0.42,0.02,0.17,0.01
2.631,0.14,-0.01,-0.42,0.02,0.17,0.00
2.632,0.17,-0.03,-0.41,0.02,0.17,0.00
2.634,0.17,-0.03,-0.41,0.01,0.17,0.00
2.635,0.19,-0.03,-0.41,0.01,0.17,0.00
2.638,0.19,-0.03,-0.41,0.01,0.17,0.00
2.639,0.21,0.01,-0.38,0.01,0.17,0.00
2.639,0.21,0.01,-0.38,0.01,0.17,-0.00
2.643,0.21,0.01,-0.38,0.00,0.17,-0.00
2.643,0.21,0.01,-0.38,-0.00,0.16,-0.01
2.643,0.22,0.01,-0.38,-0.00,0.16,-0.01
2.647,0.22,0.01,-0.38,-0.00,0.16,-0.01
2.648,0.21,-0.00,-0.36,-0.00,0.16,-0.01
2.651,0.21,-0.00,-0.36,-0.01,0.16,-0.01
2.652,0.21,-0.00,-0.36,-0.01,0.15,-0.01
2.652,0.19,0.04,-0.34,-0.01,0.15,-0.01
2.655,0.19,0.04,-0.34,-0.01,0.15,-0.02
2.656,0.18,0.04,-0.35,-0.01,0.15,-0.02
2.659,0.18,0.04,-0.35,-0.01,0.15,-0.02
2.659,0.18,0.04,-0.35,-0.01,0.14,-0.02
2.66,0.16,0.05,-0.35,-0.01,0.14,-0.02
2.663,0.16,0.05,-0.35,-0.02,0.14,-0.02
2.663,0.16,0.05,-0.35,-0.02,0.13,-0.02
2.664,0.12,0.04,-0.33,-0.02,0.13,-0.02
2.667,0.12,0.04,-0.33,-0.02,0.13,-0.02
2.667,0.10,0.02,-0.32,-0.02,0.13,-0.02
2.671,0.10,0.02,-0.32,-0.03,0.12,-0.02
2.672,0.10,0.02,-0.32,-0.03,0.11,-0.02
2.672,0.07,0.02,-0.33,-0.03,0.11,-0.02
2.675,0.07,0.02,-0.33,-0.04,0.09,-0.02
2.675,0.06,0.02,-0.33,-0.04,0.09,-0.02
2.679,0.06,0.02,-0.33,-0.04,0.09,-0.02
2.68,0.06,0.02,-0.33,-0.05,0.07,-0.02
2.68,0.06,0.03,-0.33,-0.05,0.07,-0.02
2.684,0.06,0.03,-0.33,-0.05,0.06,-0.02
2.685,0.05,0.02,-0.30,-0.05,0.06,-0.02
2.685,0.05,0.02,-0.30,-0.06,0.05,-0.02
2.688,0.05,0.02,-0.30,-0.06,0.03,-0.02
2.688,0.03,-0.02,-0.31,-0.06,0.03,-0.02
2.692,0.03,-0.02,-0.31,-0.07,0.02,-0.02
2.692,0.03,-0.02,-0.31,-0.07,0.00,-0.02
2.692,-0.00,-0.04,-0.29,-0.07,0.00,-0.02
2.696,-0.00,-0.04,-0.29,-0.08,-0.01,-0.03
2.696,0.00,-0.06,-0.28,-0.08,-0.01,-0.03
2.699,0.00,-0.06,-0.28,-0.09,-0.02,-0.02
2.701,0.00,-0.06,-0.28,-0.09,-0.04,-0.03
2.702,-0.02,-0.09,-0.27,-0.09,-0.04,-0.03
2.706,-0.02,-0.09,-0.27,-0.10,-0.06,-0.03
2.706,-0.06,-0.10,-0.24,-0.10,-0.06,-0.03
2.706,-0.06,-0.10,-0.24,-0.10,-0.07,-0.02
2.708,-0.06,-0.10,-0.24,-0.11,-0.09,-0.02
2.708,-0.05,-0.12,-0.24,-0.11,-0.09,-0.02
2.711,-0.05,-0.12,-0.24,-0.11,-0.11,-0.02
2.712,-0.05,-0.12,-0.24,-0.12,-0.12,-0.02
2.712,-0.10,-0.11,-0.20,-0.12,-0.12,-0.02
2.716,-0.10,-0.11,-0.20,-0.12,-0.14,-0.02
2.722,-0.12,-0.10,-0.17,-0.12,-0.14,-0.02
2.723,-0.12,-0.10,-0.17,-0.13,-0.15,-0.02
2.723,-0.12,-0.10,-0.17,-0.13,-0.17,-0.02
2.723,-0.15,-0.06,-0.16,-0.13,-0.17,-0.02
2.724,-0.15,-0.06,-0.16,-0.13,-0.18,-0.01
2.724,-0.15,-0.06,-0.16,-0.13,-0.20,-0.01
2.724,-0.13,-0.06,-0.11,-0.13,-0.20,-0.01
2.729,-0.13,-0.06,-0.11,-0.13,-0.21,-0.01
2.729,-0.18,-0.03,-0.07,-0.13,-0.21,-0.01
2.731,-0.18,-0.03,-0.07,-0.14,-0.22,-0.01
2.731,-0.19,-0.01,-0.05,-0.14,-0.22,-0.01
2.732,-0.19,-0.01,-0.05,-0.14,-0.23,-0.01
2.736,-0.19,-0.01,-0.05,-0.14,-0.24,-0.00
2.739,-0.20,0.00,-0.02,-0.14,-0.24,-0.00
2.74,-0.20,0.00,-0.02,-0.13,-0.25,-0.00
2.74,-0.20,0.00,-0.02,-0.13,-0.26,-0.00
2.74,-0.20,-0.01,-0.01,-0.13,-0.26,-0.00
2.743,-0.20,-0.01,-0.01,-0.13,-0.26,0.00
2.744,-0.19,0.00,0.01,-0.13,-0.26,0.00
2.744,-0.19,0.00,0.01,-0.13,-0.27,0.00
2.748,-0.19,0.00,0.01,-0.13,-0.28,0.01
2.748,-0.19,-0.00,0.03,-0.13,-0.28,0.01
2.75,-0.19,-0.00,0.03,-0.12,-0.28,0.01
2.752,-0.19,-0.00,0.03,-0.12,-0.29,0.01
2.753,-0.19,0.01,0.05,-0.12,-0.29,0.01
2.757,-0.19,0.01,0.05,-0.11,-0.29,0.01
2.757,-0.18,-0.00,0.07,-0.11,-0.29,0.01
2.759,-0.18,-0.00,0.07,-0.11,-0.29,0.01
2.759,-0.17,0.00,0.08,-0.11,-0.29,0.01
2.782,-0.17,0.00,0.08,-0.11,-0.29,0.01
2.783,-0.17,0.00,0.08,-0.10,-0.30,0.01
2.783,-0.17,0.00,0.08,-0.09,-0.30,0.01
2.783,-0.17,-0.02,0.09,-0.09,-0.30,0.01
2.784,-0.17,-0.02,0.09,-0.09,-0.30,0.00
2.784,-0.13,-0.03,0.10,-0.09,-0.30,0.00
2.784,-0.13,-0.03,0.10,-0.09,-0.30,0.01
2.784,-0.10,-0.04,0.06,-0.09,-0.30,0.01
2.785,-0.10,-0.04,0.06,-0.09,-0.29,0.00
2.785,-0.10,-0.04,0.06,-0.09,-0.29,0.00
2.785,-0.08,-0.10,0.06,-0.09,-0.29,0.00
2.786,-0.08,-0.10,0.06,-0.09,-0.29,0.00
2.786,-0.08,-0.10,0.06,-0.08,-0.30,-0.00
2.786,-0.04,-0.08,0.05,-0.08,-0.30,-0.00
2.787,-0.04,-0.08,0.05,-0.09,-0.30,0.00
2.787,-0.05,-0.09,0.03,-0.09,-0.30,0.00
2.787,-0.05,-0.09,0.03,-0.09,-0.30,0.00
2.788,-0.06,-0.08,0.02,-0.09,-0.30,0.00
2.788,-0.06,-0.08,0.02,-0.09,-0.30,0.00
2.791,-0.06,-0.08,0.02,-0.09,-0.30,0.00
2.793,-0.06,-0.10,0.00,-0.09,-0.30,0.00
2.794,-0.06,-0.10,0.00,-0.10,-0.30,0.00
2.795,-0.06,-0.10,0.00,-0.11,-0.30,0.01
2.795,-0.05,-0.10,0.01,-0.11,-0.30,0.01
2.799,-0.05,-0.10,0.01,-0.11,-0.31,0.01
2.803,-0.05,-0.10,0.01,-0.12,-0.31,0.01
2.803,-0.06,-0.08,-0.01,-0.12,-0.31,0.01
2.803,-0.06,-0.08,-0.01,-0.12,-0.31,0.01
2.804,-0.06,-0.08,-0.01,-0.13,-0.31,0.01
2.804,-0.05,-0.09,-0.01,-0.13,-0.31,0.01
2.808,-0.05,-0.09,-0.01,-0.14,-0.31,0.02
2.808,-0.04,-0.09,0.01,-0.14,-0.31,0.02
2.811,-0.04,-0.09,0.01,-0.15,-0.32,0.02
2.811,0.00,-0.10,0.00,-0.15,-0.32,0.02
2.811,0.00,-0.10,0.00,-0.15,-0.32,0.02
2.815,0.00,-0.10,0.00,-0.16,-0.32,0.02
2.815,-0.02,-0.07,0.03,-0.16,-0.32,0.02
2.819,-0.02,-0.07,0.03,-0.17,-0.32,0.02
2.819,-0.02,-0.07,0.03,-0.17,-0.32,0.03
2.819,0.02,-0.10,0.04,-0.17,-0.32,0.03
2.823,0.02,-0.10,0.04,-0.17,-0.31,0.03
2.823,0.03,-0.11,0.09,-0.17,-0.31,0.03
2.823,0.03,-0.11,0.09,-0.18,-0.31,0.03
2.827,0.03,-0.11,0.09,-0.18,-0.31,0.03
2.827,0.05,-0.07,0.13,-0.18,-0.31,0.03
2.832,0.05,-0.07,0.13,-0.18,-0.30,0.03
2.832,0.03,-0.08,0.16,-0.18,-0.30,0.03
2.832,0.03,-0.08,0.16,-0.18,-0.29,0.03
2.835,0.03,-0.08,0.16,-0.18,-0.28,0.03
2.835,0.07,-0.05,0.19,-0.18,-0.28,0.03
2.839,0.07,-0.05,0.19,-0.17,-0.28,0.03
2.839,0.07,-0.05,0.19,-0.17,-0.27,0.03
2.839,0.05,-0.04,0.24,-0.17,-0.27,0.03
2.843,0.05,-0.04,0.24,-0.16,-0.26,0.03
2.843,0.05,-0.05,0.27,-0.16,-0.26,0.03
2.843,0.05,-0.05,0.27,-0.15,-0.24,0.04
2.847,0.05,-0.05,0.27,-0.14,-0.23,0.04
2.847,0.05,-0.06,0.31,-0.14,-0.23,0.04
2.851,0.05,-0.06,0.31,-0.14,-0.22,0.04
2.851,0.05,-0.06,0.31,-0.13,-0.20,0.04
2.851,0.07,-0.04,0.34,-0.13,-0.20,0.04
2.856,0.07,-0.04,0.34,-0.12,-0.18,0.04
2.856,0.04,-0.06,0.35,-0.12,-0.18,0.04
2.859,0.04,-0.06,0.35,-0.11,-0.17,0.04
2.859,0.08,-0.04,0.36,-0.11,-0.17,0.04
2.86,0.08,-0.04,0.36,-0.09,-0.16,0.04
2.864,0.08,-0.04,0.36,-0.08,-0.14,0.04
2.864,0.07,-0.05,0.36,-0.08,-0.14,0.04
2.864,0.07,-0.05,0.36,-0.07,-0.12,0.04
2.869,0.07,-0.05,0.36,-0.06,-0.11,0.05
2.869,0.10,-0.06,0.34,-0.06,-0.11,0.05
2.873,0.10,-0.06,0.34,-0.05,-0.09,0.05
2.873,0.10,-0.06,0.34,-0.05,-0.08,0.05
2.873,0.11,-0.05,0.33,-0.05,-0.08,0.05
2.876,0.11,-0.05,0.33,-0.04,-0.07,0.05
2.876,0.12,-0.07,0.30,-0.04,-0.07,0.05
2.88,0.12,-0.07,0.30,-0.03,-0.05,0.05
2.88,0.15,-0.06,0.28,-0.03,-0.05,0.05
2.88,0.15,-0.06,0.28,-0.03,-0.04,0.05
2.883,0.15,-0.06,0.28,-0.03,-0.03,0.05
2.886,0.15,-0.06,0.28,-0.02,-0.02,0.06
2.887,0.17,-0.05,0.24,-0.02,-0.02,0.06
2.888,0.17,-0.05,0.24,-0.02,-0.01,0.06
2.888,0.21,-0.06,0.20,-0.02,-0.01,0.06
2.89,0.21,-0.06,0.20,-0.02,0.00,0.06
2.892,0.24,-0.08,0.18,-0.02,0.00,0.06
2.892,0.24,-0.08,0.18,-0.02,0.01,0.06
2.896,0.24,-0.08,0.18,-0.02,0.02,0.06
2.896,0.28,-0.06,0.15,-0.02,0.02,0.06
2.899,0.28,-0.06,0.15,-0.02,0.02,0.06
2.9,0.28,-0.06,0.15,-0.02,0.03,0.06
2.9,0.31,-0.08,0.14,-0.02,0.03,0.06
2.905,0.31,-0.08,0.14,-0.03,0.03,0.06
2.906,0.34,-0.05,0.12,-0.03,0.03,0.06
2.906,0.34,-0.05,0.12,-0.03,0.04,0.06
2.908,0.34,-0.05,0.12,-0.04,0.04,0.06
2.909,0.38,-0.05,0.09,-0.04,0.04,0.06
2.911,0.38,-0.05,0.09,-0.04,0.05,0.06
2.913,0.38,-0.05,0.09,-0.04,0.05,0.06
2.913,0.39,-0.04,0.09,-0.04,0.05,0.06
2.935,0.39,-0.04,0.09,-0.05,0.05,0.06
2.935,0.41,-0.03,0.10,-0.05,0.05,0.06
2.935,0.41,-0.03,0.10,-0.05,0.06,0.06
2.935,0.41,0.01,0.11,-0.05,0.06,0.06
2.936,0.41,0.01,0.11,-0.06,0.06,0.06
2.936,0.41,0.01,0.11,-0.06,0.07,0.06
2.936,0.41,0.01,0.11,-0.06,0.07,0.06
2.936,0.40,0.04,0.14,-0.06,0.07,0.06
2.936,0.40,0.04,0.14,-0.06,0.08,0.06
2.937,0.40,0.04,0.16,-0.06,0.08,0.06
2.937,0.40,0.04,0.16,-0.06,0.08,0.06
2.937,0.40,0.04,0.16,-0.05,0.09,0.06
2.937,0.44,0.07,0.19,-0.05,0.09,0.06
2.937,0.44,0.07,0.19,-0.04,0.10,0.06
2.937,0.42,0.06,0.22,-0.04,0.10,0.06
2.94,0.42,0.06,0.22,-0.04,0.11,0.05
2.941,0.42,0.09,0.26,-0.04,0.11,0.05
2.941,0.42,0.09,0.26,-0.03,0.12,0.05
2.943,0.42,0.09,0.26,-0.02,0.13,0.05
2.944,0.42,0.09,0.26,-0.01,0.14,0.04
2.944,0.45,0.10,0.29,-0.01,0.14,0.04
2.947,0.45,0.10,0.29,0.00,0.16,0.04
2.947,0.43,0.13,0.28,0.00,0.16,0.04
2.949,0.43,0.13,0.28,0.01,0.17,0.04
2.952,0.43,0.13,0.28,0.03,0.18,0.03
2.952,0.44,0.16,0.30,0.03,0.18,0.03
2.957,0.44,0.16,0.30,0.04,0.20,0.03
2.958,0.43,0.18,0.31,0.04,0.20,0.03
2.958,0.43,0.18,0.31,0.06,0.21,0.02
2.959,0.41,0.18,0.30,0.06,0.21,0.02
2.959,0.41,0.18,0.30,0.07,0.23,0.02
2.963,0.41,0.18,0.30,0.09,0.24,0.01
2.963,0.41,0.18,0.30,0.10,0.25,0.01
2.963,0.41,0.21,0.29,0.10,0.25,0.01
2.97,0.38,0.21,0.27,0.10,0.25,0.01
2.97,0.38,0.21,0.27,0.11,0.26,0.01
2.972,0.38,0.21,0.27,0.12,0.27,0.00
2.972,0.38,0.21,0.27,0.14,0.28,-0.00
2.972,0.36,0.19,0.23,0.14,0.28,-0.00
2.975,0.36,0.19,0.23,0.14,0.29,-0.01
2.975,0.33,0.16,0.21,0.14,0.29,-0.01
2.978,0.33,0.16,0.21,0.15,0.29,-0.01
2.979,0.31,0.10,0.14,0.15,0.29,-0.01
2.98,0.31,0.10,0.14,0.16,0.30,-0.01
2.984,0.31,0.10,0.14,0.16,0.30,-0.01
2.985,0.29,0.11,0.09,0.16,0.30,-0.01
2.986,0.29,0.11,0.09,0.17,0.30,-0.02
2.987,0.27,0.09,0.06,0.17,0.30,-0.02
2.987,0.27,0.09,0.06,0.17,0.30,-0.02
2.991,0.27,0.09,0.06,0.17,0.30,-0.02
2.991,0.27,0.09,0.06,0.17,0.30,-0.02
2.991,0.25,0.04,0.01,0.17,0.30,-0.02
2.995,0.25,0.04,0.01,0.17,0.29,-0.02
2.995,0.21,0.00,-0.02,0.17,0.29,-0.02
2.999,0.21,0.00,-0.02,0.17,0.29,-0.02
3.0,0.20,0.01,-0.06,0.17,0.29,-0.02
3.001,0.20,0.01,-0.06,0.17,0.28,-0.03
3.005,0.20,0.01,-0.06,0.16,0.27,-0.03
3.006,0.18,-0.02,-0.08,0.16,0.27,-0.03
3.006,0.18,-0.02,-0.08,0.16,0.27,-0.03
3.007,0.15,-0.03,-0.10,0.16,0.27,-0.03
3.008,0.15,-0.03,-0.10,0.15,0.26,-0.03
3.012,0.15,-0.03,-0.10,0.14,0.25,-0.03
3.012,0.15,-0.03,-0.10,0.14,0.24,-0.03
3.015,0.15,-0.03,-0.10,0.13,0.23,-0.03
3.02,0.10,-0.01,-0.13,0.13,0.23,-0.03
3.02,0.07,-0.01,-0.14,0.13,0.23,-0.03
3.02,0.04,-0.01,-0.15,0.13,0.23,-0.03
3.023,0.04,-0.01,-0.15,0.13,0.22,-0.03
3.024,0.04,-0.01,-0.15,0.12,0.21,-0.03
3.024,0.04,-0.01,-0.15,0.12,0.21,-0.03
3.024,0.02,-0.04,-0.15,0.12,0.21,-0.03
3.024,0.02,-0.04,-0.15,0.11,0.20,-0.03
3.035,-0.02,-0.03,-0.11,0.11,0.20,-0.03
3.035,-0.02,-0.03,-0.11,0.11,0.19,-0.03
3.035,-0.02,-0.03,-0.11,0.11,0.18,-0.03
3.036,-0.01,-0.03,-0.13,0.11,0.18,-0.03
3.036,-0.01,-0.03,-0.13,0.10,0.17,-0.03
3.036,-0.06,-0.03,-0.13,0.10,0.17,-0.03
3.036,-0.06,-0.03,-0.13,0.10,0.16,-0.03
3.039,-0.06,-0.03,-0.13,0.10,0.16,-0.03
3.04,-0.08,-0.02,-0.11,0.10,0.16,-0.03
3.041,-0.08,-0.02,-0.11,0.10,0.15,-0.03
3.043,-0.08,-0.02,-0.11,0.09,0.15,-0.03
3.046,-0.09,-0.01,-0.10,0.09,0.15,-0.03
3.046,-0.09,-0.01,-0.10,0.09,0.14,-0.03
3.048,-0.09,-0.01,-0.10,0.09,0.14,-0.03
3.048,-0.12,-0.01,-0.11,0.09,0.14,-0.03
3.051,-0.12,-0.01,-0.11,0.10,0.13,-0.03
3.051,-0.12,-0.01,-0.11,0.10,0.13,-0.03
3.051,-0.12,-0.02,-0.11,0.10,0.13,-0.03
3.057,-0.12,-0.02,-0.12,0.10,0.13,-0.03
3.057,-0.12,-0.02,-0.12,0.10,0.13,-0.03
3.059,-0.12,-0.02,-0.12,0.10,0.13,-0.02
3.06,-0.12,-0.02,-0.12,0.10,0.12,-0.02
3.06,-0.17,0.01,-0.14,0.10,0.12,-0.02
3.064,-0.17,0.01,-0.14,0.10,0.12,-0.02
3.064,-0.17,0.01,-0.14,0.10,0.12,-0.02
3.064,-0.15,-0.01,-0.12,0.10,0.12,-0.02
3.067,-0.15,-0.01,-0.12,0.10,0.12,-0.02
3.082,-0.19,0.00,-0.14,0.10,0.12,-0.02
3.082,-0.19,0.00,-0.14,0.10,0.11,-0.01
3.082,-0.16,0.02,-0.16,0.10,0.11,-0.01
3.082,-0.16,0.02,-0.16,0.10,0.11,-0.01
3.082,-0.16,0.02,-0.16,0.10,0.11,-0.01
3.082,-0.18,0.02,-0.19,0.10,0.11,-0.01
3.082,-0.18,0.02,-0.19,0.09,0.10,-0.01
3.083,-0.18,0.03,-0.21,0.09,0.10,-0.01
3.083,-0.18,0.03,-0.21,0.09,0.10,-0.01
3.083,-0.18,0.03,-0.21,0.09,0.09,-0.01
3.083,-0.18,0.03,-0.21,0.08,0.09,-0.01
3.085,-0.19,0.02,-0.21,0.08,0.09,-0.01
3.088,-0.19,0.02,-0.21,0.08,0.08,-0.01
3.088,-0.19,0.03,-0.24,0.08,0.08,-0.01
3.09,-0.19,0.03,-0.24,0.07,0.07,-0.01
3.09,-0.19,0.03,-0.24,0.06,0.07,-0.00
3.091,-0.20,0.05,-0.24,0.06,0.07,-0.00
3.095,-0.20,0.05,-0.24,0.06,0.06,-0.00
3.095,-0.22,0.04,-0.26,0.06,0.06,-0.00
3.098,-0.22,0.04,-0.26,0.05,0.06,-0.00
3.099,-0.22,0.04,-0.26,0.04,0.05,-0.00
3.099,-0.21,0.04,-0.26,0.04,0.05,-0.00
3.104,-0.21,0.04,-0.26,0.04,0.04,0.00
3.105,-0.21,0.04,-0.26,0.03,0.03,0.00
3.105,-0.21,0.03,-0.26,0.03,0.03,0.00
3.107,-0.21,0.03,-0.26,0.02,0.03,0.00
3.107,-0.20,0.02,-0.26,0.02,0.03,0.00
3.111,-0.20,0.02,-0.26,0.01,0.02,0.01
3.111,-0.21,-0.01,-0.26,0.01,0.02,0.01
3.111,-0.21,-0.01,-0.26,0.01,0.01,0.01
3.116,-0.20,-0.02,-0.26,0.01,0.01,0.01
3.116,-0.20,-0.02,-0.26,0.00,-0.00,0.01
3.12,-0.20,-0.02,-0.26,-0.01,-0.01,0.01
3.121,-0.20,-0.02,-0.26,-0.02,-0.02,0.01
3.121,-0.18,-0.06,-0.23,-0.02,-0.02,0.01
3.124,-0.18,-0.06,-0.23,-0.02,-0.03,0.02
3.124,-0.18,-0.06,-0.23,-0.03,-0.03,0.02
3.124,-0.18,-0.07,-0.23,-0.03,-0.03,0.02
3.128,-0.16,-0.10,-0.21,-0.03,-0.03,0.02
3.128,-0.16,-0.10,-0.21,-0.03,-0.04,0.02
3.131,-0.16,-0.10,-0.21,-0.04,-0.05,0.02
3.131,-0.16,-0.10,-0.21,-0.05,-0.05,0.02
3.131,-0.14,-0.10,-0.20,-0.05,-0.05,0.02
3.137,-0.14,-0.10,-0.20,-0.05,-0.06,0.03
3.141,-0.10,-0.10,-0.17,-0.05,-0.06,0.03
3.141,-0.10,-0.10,-0.17,-0.06,-0.07,0.03
3.141,-0.10,-0.10,-0.17,-0.06,-0.07,0.03
3.141,-0.08,-0.08,-0.18,-0.06,-0.07,0.03
3.143,-0.08,-0.08,-0.18,-0.07,-0.08,0.03
3.144,-0.05,-0.06,-0.16,-0.07,-0.08,0.03
3.144,-0.05,-0.06,-0.16,-0.07,-0.08,0.03
3.147,-0.05,-0.06,-0.16,-0.08,-0.09,0.03
3.148,-0.02,-0.05,-0.16,-0.08,-0.09,0.03
3.149,-0.02,-0.05,-0.16,-0.08,-0.09,0.03
3.154,-0.00,-0.04,-0.14,-0.08,-0.09,0.03
3.155,-0.00,-0.04,-0.14,-0.09,-0.10,0.03
3.155,-0.00,-0.04,-0.14,-0.09,-0.11,0.03
3.155,0.03,-0.03,-0.12,-0.09,-0.11,0.03
3.16,0.03,-0.03,-0.12,-0.09,-0.11,0.02
3.16,0.00,0.01,-0.09,-0.09,-0.11,0.02
3.16,0.00,0.01,-0.09,-0.10,-0.12,0.02
3.164,0.00,0.01,-0.09,-0.10,-0.13,0.02
3.164,0.00,0.01,-0.09,-0.11,-0.13,0.02
3.164,0.01,-0.01,-0.08,-0.11,-0.13,0.02
3.168,0.02,0.03,-0.05,-0.11,-0.13,0.02
3.168,0.02,0.03,-0.05,-0.11,-0.14,0.01
3.171,0.02,0.03,-0.05,-0.12,-0.15,0.01
3.171,-0.00,0.03,-0.03,-0.12,-0.15,0.01
3.172,-0.00,0.03,-0.03,-0.12,-0.16,0.01
3.176,-0.00,0.03,-0.03,-0.12,-0.17,0.01
3.176,-0.03,0.05,0.01,-0.12,-0.17,0.01
3.18,-0.03,0.05,0.01,-0.12,-0.18,0.01
3.18,-0.05,0.06,0.03,-0.12,-0.18,0.01
3.18,-0.05,0.06,0.03,-0.13,-0.18,0.01
3.184,-0.05,0.06,0.03,-0.13,-0.20,0.01
3.185,-0.05,0.06,0.03,-0.13,-0.21,0.00
3.185,-0.07,0.08,0.05,-0.13,-0.21,0.00
3.188,-0.07,0.08,0.05,-0.13,-0.22,0.00
3.189,-0.09,0.09,0.08,-0.13,-0.22,0.00
3.192,-0.09,0.09,0.08,-0.13,-0.22,0.00
3.193,-0.09,0.09,0.08,-0.13,-0.23,0.00
3.193,-0.11,0.10,0.11,-0.13,-0.23,0.00
3.196,-0.11,0.10,0.11,-0.13,-0.24,0.00
3.196,-0.12,0.10,0.14,-0.13,-0.24,0.00
3.199,-0.12,0.10,0.14,-0.13,-0.25,0.00
3.2,-0.12,0.10,0.14,-0.12,-0.25,0.01
3.2,-0.12,0.09,0.16,-0.12,-0.25,0.01
3.205,-0.12,0.09,0.16,-0.12,-0.26,0.01
3.205,-0.12,0.09,0.16,-0.12,-0.27,0.00
3.205,-0.17,0.09,0.19,-0.12,-0.27,0.00
3.208,-0.17,0.09,0.19,-0.12,-0.27,0.01
3.209,-0.14,0.10,0.21,-0.12,-0.27,0.01
3.212,-0.14,0.10,0.21,-0.11,-0.27,0.01
3.212,-0.14,0.10,0.21,-0.11,-0.28,0.01
3.213,-0.16,0.08,0.22,-0.11,-0.28,0.01
3.216,-0.16,0.08,0.22,-0.10,-0.28,0.01
3.216,-0.12,0.05,0.25,-0.10,-0.28,0.01
3.224,-0.12,0.05,0.25,-0.10,-0.28,0.01
3.224,-0.12,0.05,0.25,-0.09,-0.28,0.01
3.225,-0.14,0.04,0.26,-0.09,-0.28,0.01
3.251,-0.14,0.04,0.26,-0.08,-0.28,0.01
3.252,-0.13,-0.01,0.25,-0.08,-0.28,0.01
3.252,-0.13,-0.01,0.25,-0.08,-0.28,0.01
3.252,-0.10,-0.03,0.25,-0.08,-0.28,0.01
3.252,-0.10,-0.03,0.25,-0.07,-0.28,0.01
3.253,-0.10,-0.03,0.25,-0.06,-0.27,0.01
3.253,-0.10,-0.03,0.25,-0.06,-0.27,0.01
3.253,-0.11,-0.07,0.24,-0.06,-0.27,0.01
3.253,-0.11,-0.07,0.24,-0.05,-0.26,0.01
3.253,-0.08,-0.03,0.26,-0.05,-0.26,0.01
3.253,-0.08,-0.03,0.26,-0.05,-0.25,0.01
3.254,-0.10,-0.04,0.25,-0.05,-0.25,0.01
3.254,-0.10,-0.04,0.25,-0.04,-0.25,0.01
3.254,-0.10,-0.04,0.25,-0.03,-0.24,0.01
3.254,-0.07,-0.05,0.22,-0.03,-0.24,0.01
3.254,-0.07,-0.05,0.22,-0.03,-0.24,0.01
3.254,-0.05,-0.02,0.21,-0.03,-0.24,0.01
3.255,-0.05,-0.02,0.21,-0.02,-0.23,0.01
3.255,-0.05,-0.02,0.21,-0.02,-0.22,0.01
3.255,-0.05,-0.02,0.21,-0.01,-0.21,0.02
3.255,-0.04,-0.03,0.20,-0.01,-0.21,0.02
3.255,-0.04,-0.03,0.20,-0.01,-0.20,0.02
3.255,-0.02,-0.01,0.17,-0.01,-0.20,0.02
3.263,-0.01,-0.01,0.15,-0.01,-0.20,0.02
3.265,0.00,0.02,0.13,-0.01,-0.20,0.02
3.266,0.00,0.02,0.13,-0.01,-0.19,0.02
3.266,0.00,0.02,0.13,-0.00,-0.18,0.02
3.267,0.00,0.02,0.13,-0.00,-0.17,0.02
3.267,0.00,0.02,0.13,-0.00,-0.16,0.02
3.267,0.00,0.02,0.13,-0.00,-0.15,0.02
3.267,0.04,-0.02,0.12,-0.00,-0.15,0.02
3.273,0.04,-0.02,0.12,0.00,-0.15,0.02
3.273,0.08,-0.01,0.10,0.00,-0.15,0.02
3.273,0.08,-0.01,0.10,0.00,-0.13,0.02
3.275,0.08,-0.01,0.10,-0.00,-0.13,0.02
3.275,0.08,-0.01,0.10,-0.00,-0.13,0.02
3.279,0.08,-0.01,0.10,-0.00,-0.12,0.02
3.279,0.08,-0.01,0.10,-0.00,-0.11,0.02
3.279,0.11,-0.00,0.10,-0.00,-0.11,0.02
3.282,0.11,-0.00,0.10,-0.00,-0.10,0.02
3.283,0.11,-0.00,0.10,-0.00,-0.09,0.02
3.283,0.12,-0.03,0.09,-0.00,-0.09,0.02
3.288,0.12,-0.03,0.09,-0.00,-0.09,0.02
3.288,0.13,-0.04,0.10,-0.00,-0.09,0.02
3.291,0.13,-0.04,0.10,-0.00,-0.08,0.02
3.291,0.11,-0.04,0.11,-0.00,-0.08,0.02
3.292,0.11,-0.04,0.11,-0.00,-0.07,0.02
3.295,0.11,-0.04,0.11,0.00,-0.06,0.02
3.295,0.12,-0.04,0.12,0.00,-0.06,0.02
3.299,0.12,-0.04,0.12,0.00,-0.05,0.02
3.3,0.11,-0.02,0.13,0.00,-0.05,0.02
3.3,0.11,-0.02,0.13,0.01,-0.04,0.02
3.303,0.11,-0.02,0.13,0.01,-0.04,0.02
3.304,0.11,0.00,0.13,0.01,-0.04,0.02
3.304,0.11,0.00,0.13,0.02,-0.03,0.02
3.308,0.11,0.00,0.14,0.02,-0.03,0.02
3.308,0.11,0.00,0.14,0.02,-0.02,0.02
3.311,0.11,0.00,0.14,0.02,-0.00,0.02
3.311,0.15,0.00,0.14,0.02,-0.00,0.02
3.311,0.15,0.00,0.14,0.03,0.01,0.02
3.315,0.15,0.00,0.14,0.04,0.02,0.03
3.316,0.13,0.04,0.13,0.04,0.02,0.03
3.321,0.13,0.04,0.13,0.04,0.03,0.03
3.321,0.13,0.04,0.13,0.05,0.04,0.03
3.321,0.16,0.05,0.13,0.05,0.04,0.03
3.326,0.16,0.05,0.13,0.05,0.06,0.03
3.326,0.16,0.05,0.13,0.06,0.07,0.03
3.327,0.19,0.05,0.10,0.06,0.07,0.03
3.327,0.23,0.02,0.07,0.06,0.07,0.03
3.327,0.23,0.02,0.07,0.06,0.08,0.03
3.331,0.23,0.02,0.07,0.07,0.09,0.03
3.332,0.27,0.03,0.06,0.07,0.09,0.03
3.332,0.27,0.03,0.06,0.07,0.11,0.03
3.335,0.27,0.03,0.06,0.07,0.12,0.03
3.336,0.28,0.04,0.03,0.07,0.12,0.03
3.341,0.28,0.04,0.03,0.07,0.13,0.03
3.342,0.33,-0.01,-0.02,0.07,0.13,0.03
3.342,0.33,-0.01,-0.02,0.08,0.14,0.03
3.344,0.33,-0.01,-0.02,0.08,0.15,0.03
3.344,0.33,-0.01,-0.02,0.08,0.16,0.02
3.344,0.36,0.03,-0.04,0.08,0.16,0.02
3.347,0.36,0.03,-0.04,0.07,0.17,0.02
3.348,0.37,0.04,-0.07,0.07,0.17,0.02
3.35,0.37,0.04,-0.07,0.07,0.17,0.02
3.352,0.37,0.04,-0.07,0.07,0.18,0.01
3.352,0.39,0.04,-0.11,0.07,0.18,0.01
3.355,0.39,0.04,-0.11,0.07,0.18,0.01
3.355,0.37,0.06,-0.10,0.07,0.18,0.01
3.36,0.37,0.06,-0.10,0.06,0.19,0.01
3.36,0.37,0.06,-0.10,0.06,0.19,0.00
3.361,0.40,0.09,-0.12,0.06,0.19,0.00
3.364,0.40,0.09,-0.12,0.06,0.20,0.00
3.364,0.38,0.11,-0.13,0.06,0.20,0.00
3.365,0.38,0.11,-0.13,0.06,0.20,-0.00
3.368,0.38,0.11,-0.13,0.05,0.20,-0.01
3.368,0.37,0.11,-0.10,0.05,0.20,-0.01
3.372,0.37,0.11,-0.10,0.05,0.20,-0.01
3.373,0.37,0.11,-0.10,0.04,0.20,-0.01
3.379,0.37,0.11,-0.10,0.05,0.20,-0.02
3.383,0.37,0.11,-0.10,0.04,0.20,-0.03
3.405,0.37,0.11,-0.10,0.04,0.20,-0.03
3.405,0.37,0.11,-0.10,0.04,0.20,-0.03
3.405,0.37,0.11,-0.10,0.04,0.20,-0.04
3.406,0.36,0.11,-0.12,0.04,0.20,-0.04
3.406,0.36,0.11,-0.12,0.04,0.19,-0.04
3.406,0.35,0.12,-0.10,0.04,0.19,-0.04
3.407,0.33,0.10,-0.10,0.04,0.19,-0.04
3.407,0.28,0.10,-0.07,0.04,0.19,-0.04
3.407,0.23,0.11,-0.05,0.04,0.19,-0.04
3.408,0.23,0.11,-0.05,0.04,0.19,-0.04
3.408,0.23,0.11,-0.05,0.04,0.19,-0.05
3.408,0.18,0.09,-0.02,0.04,0.19,-0.05
3.408,0.18,0.09,-0.02,0.05,0.18,-0.05
3.409,0.12,0.08,-0.03,0.05,0.18,-0.05
3.409,0.12,0.08,-0.03,0.05,0.18,-0.05
3.409,0.12,0.08,-0.03,0.05,0.17,-0.06
3.41,0.09,0.06,-0.01,0.05,0.17,-0.06
3.41,0.09,0.06,-0.01,0.05,0.16,-0.06
3.41,0.03,0.03,-0.03,0.05,0.16,-0.06
3.411,0.03,0.03,-0.03,0.05,0.16,-0.06
3.411,0.03,0.03,-0.03,0.06,0.15,-0.06
3.411,-0.01,-0.00,-0.02,0.06,0.15,-0.06
3.412,-0.01,-0.00,-0.02,0.06,0.14,-0.06
3.412,-0.05,-0.01,-0.05,0.06,0.14,-0.06
3.412,-0.05,-0.01,-0.05,0.06,0.13,-0.06
3.415,-0.05,-0.01,-0.05,0.06,0.12,-0.06
3.415,-0.09,-0.02,-0.04,0.06,0.12,-0.06
3.419,-0.09,-0.02,-0.04,0.06,0.11,-0.06
3.419,-0.12,-0.08,-0.04,0.06,0.11,-0.06
3.42,-0.12,-0.08,-0.04,0.07,0.10,-0.06
3.423,-0.12,-0.08,-0.04,0.07,0.09,-0.06
3.423,-0.12,-0.08,-0.04,0.06,0.08,-0.06
3.424,-0.16,-0.09,-0.05,0.06,0.08,-0.06
3.428,-0.16,-0.09,-0.05,0.07,0.07,-0.06
3.428,-0.19,-0.08,-0.05,0.07,0.07,-0.06
3.43,-0.19,-0.08,-0.05,0.07,0.06,-0.06
3.431,-0.23,-0.11,-0.06,0.07,0.06,-0.06
3.431,-0.23,-0.11,-0.06,0.07,0.05,-0.06
3.435,-0.23,-0.11,-0.06,0.07,0.04,-0.05
3.435,-0.27,-0.10,-0.08,0.07,0.04,-0.05
3.439,-0.27,-0.10,-0.08,0.06,0.03,-0.05
3.439,-0.28,-0.11,-0.11,0.06,0.03,-0.05
3.44,-0.28,-0.11,-0.11,0.06,0.02,-0.05
3.442,-0.28,-0.11,-0.11,0.06,0.02,-0.05
3.443,-0.28,-0.11,-0.11,0.06,0.01,-0.04
3.443,-0.29,-0.09,-0.11,0.06,0.01,-0.04
3.447,-0.29,-0.09,-0.11,0.06,-0.00,-0.04
3.447,-0.33,-0.08,-0.12,0.06,-0.00,-0.04
3.452,-0.32,-0.09,-0.12,0.06,-0.00,-0.04
3.452,-0.32,-0.09,-0.12,0.06,-0.01,-0.04
3.452,-0.32,-0.09,-0.12,0.05,-0.02,-0.04
3.455,-0.32,-0.09,-0.12,0.05,-0.02,-0.04
3.456,-0.32,-0.06,-0.13,0.05,-0.02,-0.04
3.46,-0.34,-0.05,-0.14,0.05,-0.02,-0.04
3.46,-0.34,-0.05,-0.14,0.05,-0.03,-0.03
3.46,-0.34,-0.05,-0.14,0.04,-0.03,-0.03
3.464,-0.34,-0.05,-0.14,0.04,-0.04,-0.03
3.464,-0.34,-0.05,-0.14,0.04,-0.04,-0.02
3.464,-0.34,-0.04,-0.14,0.04,-0.04,-0.02
3.468,-0.34,-0.04,-0.16,0.04,-0.04,-0.02
3.468,-0.34,-0.04,-0.16,0.04,-0.05,-0.02
3.471,-0.34,-0.04,-0.16,0.03,-0.05,-0.02
3.472,-0.34,-0.04,-0.16,0.03,-0.05,-0.02
3.472,-0.34,-0.04,-0.16,0.03,-0.06,-0.02
3.474,-0.34,-0.04,-0.16,0.03,-0.06,-0.02
3.475,-0.35,-0.04,-0.15,0.03,-0.06,-0.02
3.479,-0.35,-0.04,-0.15,0.02,-0.06,-0.01
3.479,-0.35,-0.04,-0.15,0.02,-0.07,-0.01
3.479,-0.34,-0.05,-0.17,0.02,-0.07,-0.01
3.483,-0.34,-0.05,-0.17,0.01,-0.07,-0.01
3.483,-0.35,-0.05,-0.18,0.01,-0.07,-0.01
3.484,-0.35,-0.05,-0.18,0.01,-0.08,-0.01
3.487,-0.35,-0.05,-0.18,0.01,-0.08,-0.01
3.487,-0.33,-0.07,-0.18,0.01,-0.08,-0.01
3.491,-0.33,-0.07,-0.18,-0.00,-0.07,-0.00
3.491,-0.33,-0.07,-0.18,-0.01,-0.08,0.00
3.491,-0.31,-0.05,-0.16,-0.01,-0.08,0.00
3.495,-0.31,-0.05,-0.16,-0.01,-0.08,0.00
3.495,-0.28,-0.06,-0.17,-0.01,-0.08,0.00
3.499,-0.28,-0.06,-0.17,-0.02,-0.08,0.00
3.499,-0.28,-0.06,-0.17,-0.02,-0.08,0.01
3.499,-0.29,-0.06,-0.17,-0.02,-0.08,0.01
3.503,-0.29,-0.06,-0.17,-0.03,-0.08,0.01
3.503,-0.29,-0.06,-0.17,-0.03,-0.08,0.01
3.504,-0.27,-0.05,-0.19,-0.03,-0.08,0.01
3.507,-0.27,-0.05,-0.19,-0.04,-0.08,0.01
3.508,-0.26,-0.03,-0.18,-0.04,-0.08,0.01
3.511,-0.26,-0.03,-0.18,-0.05,-0.08,0.02
3.511,-0.26,-0.03,-0.18,-0.05,-0.08,0.02
3.511,-0.22,-0.02,-0.17,-0.05,-0.08,0.02
3.515,-0.22,-0.02,-0.17,-0.06,-0.07,0.02
3.515,-0.22,-0.02,-0.15,-0.06,-0.07,0.02
3.519,-0.22,-0.02,-0.15,-0.06,-0.07,0.02
3.519,-0.19,-0.04,-0.13,-0.06,-0.07,0.02
3.52,-0.19,-0.04,-0.13,-0.07,-0.07,0.03
3.523,-0.19,-0.04,-0.13,-0.07,-0.07,0.03
3.526,-0.13,-0.04,-0.12,-0.07,-0.07,0.03
3.526,-0.13,-0.04,-0.12,-0.08,-0.06,0.03
3.527,-0.13,-0.04,-0.12,-0.08,-0.06,0.03
3.528,-0.13,-0.07,-0.11,-0.08,-0.06,0.03
3.55,-0.13,-0.07,-0.11,-0.08,-0.05,0.04
3.55,-0.07,-0.06,-0.07,-0.08,-0.05,0.04
3.55,-0.07,-0.06,-0.07,-0.08,-0.05,0.04
3.551,-0.07,-0.06,-0.07,-0.08,-0.04,0.04
3.551,-0.06,-0.08,-0.05,-0.08,-0.04,0.04
3.551,-0.06,-0.08,-0.05,-0.09,-0.04,0.04
3.552,-0.00,-0.08,-0.03,-0.09,-0.04,0.04
3.552,-0.00,-0.08,-0.03,-0.08,-0.03,0.04
3.552,-0.00,-0.08,-0.03,-0.08,-0.02,0.04
3.553,0.03,-0.09,-0.03,-0.08,-0.02,0.04
3.553,0.03,-0.09,-0.03,-0.09,-0.02,0.05
3.553,0.03,-0.09,-0.03,-0.09,-0.02,0.05
3.553,0.07,-0.06,-0.03,-0.09,-0.02,0.05
3.553,0.07,-0.06,-0.03,-0.09,-0.01,0.05
3.553,0.07,-0.06,-0.03,-0.09,-0.01,0.05
3.554,0.11,-0.04,-0.01,-0.09,-0.01,0.05
3.558,0.11,-0.04,-0.01,-0.09,-0.00,0.05
3.558,0.15,-0.04,0.00,-0.09,-0.00,0.05
3.559,0.15,-0.04,0.00,-0.09,0.00,0.05
3.559,0.15,-0.04,0.00,-0.09,0.00,0.05
3.559,0.16,-0.01,0.01,-0.09,0.00,0.05
3.563,0.16,-0.01,0.01,-0.09,0.01,0.05
3.563,0.16,-0.01,0.01,-0.09,0.01,0.05
3.563,0.23,0.01,-0.02,-0.09,0.01,0.05
3.567,0.26,0.02,-0.00,-0.09,0.01,0.05
3.567,0.26,0.02,-0.00,-0.10,0.01,0.04
3.57,0.26,0.02,-0.00,-0.10,0.02,0.04
3.572,0.27,0.03,-0.01,-0.10,0.02,0.04
3.573,0.27,0.03,-0.01,-0.10,0.02,0.04
3.575,0.29,0.07,-0.01,-0.10,0.02,0.04
3.576,0.29,0.07,-0.01,-0.10,0.02,0.04
3.578,0.29,0.07,-0.01,-0.11,0.02,0.04
3.579,0.29,0.05,0.01,-0.11,0.02,0.04
3.579,0.29,0.05,0.01,-0.11,0.02,0.03
3.583,0.29,0.05,0.01,-0.11,0.03,0.03
3.583,0.31,0.09,0.01,-0.11,0.03,0.03
3.584,0.31,0.09,0.01,-0.12,0.02,0.03
3.587,0.29,0.09,0.04,-0.12,0.02,0.03
3.587,0.29,0.09,0.04,-0.12,0.03,0.02
3.591,0.30,0.07,0.07,-0.12,0.03,0.02
3.591,0.30,0.07,0.07,-0.12,0.03,0.02
3.591,0.30,0.07,0.07,-0.12,0.03,0.02
3.595,0.30,0.07,0.07,-0.12,0.03,0.02
3.595,0.30,0.10,0.12,-0.12,0.03,0.02
3.599,0.30,0.10,0.12,-0.12,0.03,0.01
3.6,0.28,0.10,0.14,-0.12,0.03,0.01
3.6,0.28,0.10,0.14,-0.12,0.04,0.01
3.603,0.28,0.10,0.14,-0.11,0.04,0.01
3.603,0.26,0.09,0.18,-0.11,0.04,0.01
3.603,0.26,0.09,0.18,-0.11,0.04,0.00
3.607,0.22,0.10,0.20,-0.11,0.04,0.00
3.607,0.22,0.10,0.20,-0.11,0.05,-0.00
3.611,0.22,0.10,0.20,-0.10,0.05,-0.00
3.611,0.22,0.10,0.20,-0.09,0.06,-0.01
3.611,0.16,0.08,0.26,-0.09,0.06,-0.01
3.615,0.16,0.08,0.26,-0.09,0.06,-0.01
3.615,0.13,0.09,0.28,-0.09,0.06,-0.01
3.619,0.13,0.09,0.28,-0.08,0.06,-0.01
3.619,0.10,0.07,0.30,-0.08,0.06,-0.01
3.619,0.10,0.07,0.30,-0.07,0.06,-0.01
3.622,0.10,0.07,0.30,-0.06,0.07,-0.02
3.623,0.10,0.07,0.30,-0.05,0.07,-0.02
3.623,0.07,0.04,0.33,-0.05,0.07,-0.02
3.628,0.07,0.04,0.33,-0.04,0.07,-0.02
3.628,0.06,0.05,0.33,-0.04,0.07,-0.02
3.631,0.06,0.05,0.33,-0.04,0.07,-0.02
3.631,0.06,0.05,0.33,-0.03,0.07,-0.02
3.632,-0.02,0.02,0.32,-0.03,0.07,-0.02
3.635,-0.02,0.02,0.32,-0.02,0.07,-0.02
3.635,-0.02,0.03,0.33,-0.02,0.07,-0.02
3.64,-0.02,0.03,0.33,-0.01,0.07,-0.03
3.64,-0.06,-0.01,0.30,-0.01,0.07,-0.03
3.641,-0.06,-0.01,0.30,-0.01,0.07,-0.03
3.642,-0.06,-0.01,0.30,0.00,0.07,-0.03
3.644,-0.08,-0.01,0.31,0.00,0.07,-0.03
3.644,-0.08,-0.01,0.31,0.01,0.06,-0.03
3.648,-0.08,-0.01,0.31,0.01,0.06,-0.03
3.648,-0.11,-0.05,0.30,0.01,0.06,-0.03
3.651,-0.11,-0.05,0.30,0.02,0.06,-0.03
3.651,-0.11,-0.05,0.30,0.02,0.05,-0.03
3.651,-0.15,-0.05,0.27,0.02,0.05,-0.03
3.655,-0.15,-0.05,0.27,0.02,0.05,-0.03
3.657,-0.17,-0.07,0.25,0.02,0.05,-0.03
3.659,-0.17,-0.07,0.25,0.02,0.04,-0.03
3.66,-0.16,-0.10,0.23,0.02,0.04,-0.03
3.66,-0.16,-0.10,0.23,0.03,0.04,-0.03
3.664,-0.16,-0.10,0.23,0.03,0.03,-0.03
3.664,-0.16,-0.10,0.23,0.03,0.03,-0.03
3.664,-0.19,-0.13,0.22,0.03,0.03,-0.03
3.667,-0.19,-0.13,0.22,0.03,0.02,-0.03
3.668,-0.22,-0.10,0.19,0.03,0.02,-0.03
3.671,-0.22,-0.10,0.19,0.03,0.01,-0.02
3.671,-0.21,-0.14,0.17,0.03,0.01,-0.02
3.671,-0.21,-0.14,0.17,0.03,0.01,-0.02
3.675,-0.21,-0.14,0.17,0.03,0.00,-0.02
3.676,-0.21,-0.12,0.17,0.03,0.00,-0.02
3.68,-0.21,-0.12,0.17,0.03,-0.00,-0.02
3.681,-0.22,-0.10,0.15,0.03,-0.00,-0.02
3.681,-0.22,-0.10,0.15,0.03,-0.01,-0.02
3.683,-0.22,-0.10,0.15,0.03,-0.01,-0.02
3.706,-0.22,-0.10,0.15,0.02,-0.02,-0.02
3.706,-0.24,-0.09,0.14,0.02,-0.02,-0.02
3.706,-0.24,-0.09,0.14,0.02,-0.02,-0.02
3.707,-0.23,-0.06,0.13,0.02,-0.02,-0.02
3.707,-0.23,-0.06,0.13,0.02,-0.02,-0.02
3.707,-0.23,-0.06,0.13,0.02,-0.02,-0.02
3.708,-0.23,-0.03,0.13,0.02,-0.02,-0.02
3.708,-0.23,-0.03,0.13,0.02,-0.02,-0.01
3.708,-0.21,-0.01,0.13,0.02,-0.02,-0.01
3.708,-0.21,-0.01,0.13,0.02,-0.02,-0.01
3.709,-0.20,-0.00,0.12,0.02,-0.02,-0.01
3.709,-0.20,-0.00,0.12,0.02,-0.02,-0.01
3.709,-0.20,-0.00,0.12,0.03,-0.02,-0.02
3.71,-0.20,-0.00,0.12,0.03,-0.02,-0.02
3.71,-0.20,0.02,0.13,0.03,-0.02,-0.02
3.71,-0.20,0.02,0.13,0.03,-0.01,-0.01
3.711,-0.19,0.01,0.12,0.03,-0.01,-0.01
3.711,-0.19,0.01,0.12,0.04,-0.01,-0.02
3.714,-0.19,0.01,0.12,0.04,-0.00,-0.02
3.714,-0.16,0.01,0.13,0.04,-0.00,-0.02
3.715,-0.16,0.01,0.13,0.04,0.00,-0.02
3.718,-0.22,0.01,0.12,0.04,0.00,-0.02
3.718,-0.22,0.01,0.12,0.04,0.01,-0.02
3.721,-0.22,0.01,0.12,0.04,0.01,-0.02
3.722,-0.22,0.01,0.12,0.05,0.02,-0.02
3.722,-0.19,0.00,0.11,0.05,0.02,-0.02
3.725,-0.19,0.00,0.11,0.05,0.02,-0.01
3.725,-0.18,-0.01,0.11,0.05,0.02,-0.01
3.728,-0.23,0.02,0.09,0.05,0.02,-0.01
3.729,-0.23,0.02,0.09,0.05,0.03,-0.02
3.729,-0.23,0.02,0.09,0.05,0.03,-0.01
3.733,-0.21,0.00,0.09,0.05,0.03,-0.01
3.733,-0.21,0.00,0.09,0.06,0.04,-0.01
3.734,-0.21,0.00,0.09,0.06,0.04,-0.01
3.736,-0.21,0.02,0.08,0.06,0.04,-0.01
3.737,-0.21,0.02,0.08,0.07,0.04,-0.01
3.742,-0.21,0.02,0.08,0.07,0.05,-0.01
3.743,-0.24,0.01,0.05,0.07,0.05,-0.01
3.743,-0.24,0.01,0.05,0.07,0.05,-0.01
3.744,-0.24,0.02,0.06,0.07,0.05,-0.01
3.744,-0.24,0.02,0.06,0.07,0.05,-0.01
3.747,-0.24,0.03,0.04,0.07,0.05,-0.01
3.747,-0.24,0.03,0.04,0.07,0.05,-0.01
3.75,-0.24,0.03,0.04,0.07,0.05,-0.01
3.751,-0.21,0.06,0.02,0.07,0.05,-0.01
3.751,-0.21,0.06,0.02,0.07,0.05,-0.01
3.755,-0.21,0.06,0.02,0.07,0.05,-0.01
3.755,-0.24,0.07,0.02,0.07,0.05,-0.01
3.76,-0.24,0.07,0.02,0.07,0.05,-0.01
3.761,-0.20,0.07,0.01,0.07,0.05,-0.01
3.761,-0.20,0.07,0.01,0.07,0.05,-0.00
3.763,-0.20,0.07,0.01,0.07,0.05,-0.00
3.763,-0.20,0.07,0.01,0.07,0.05,-0.00
3.763,-0.22,0.07,-0.04,0.07,0.05,-0.00
3.767,-0.19,0.06,-0.03,0.07,0.05,-0.00
3.767,-0.19,0.06,-0.03,0.07,0.05,-0.00
3.771,-0.19,0.06,-0.03,0.07,0.05,-0.00
3.771,-0.19,0.06,-0.03,0.06,0.04,-0.00
3.771,-0.21,0.06,-0.06,0.06,0.04,-0.00
3.774,-0.21,0.06,-0.06,0.06,0.04,0.00
3.775,-0.18,0.08,-0.06,0.06,0.04,0.00
3.779,-0.18,0.08,-0.06,0.06,0.03,0.00
3.78,-0.17,0.06,-0.07,0.06,0.03,0.00
3.78,-0.17,0.06,-0.07,0.06,0.03,0.00
3.783,-0.17,0.06,-0.07,0.06,0.03,0.00
3.783,-0.17,0.06,-0.07,0.05,0.02,0.01
3.783,-0.13,0.03,-0.08,0.05,0.02,0.01
3.787,-0.13,0.03,-0.08,0.05,0.02,0.01
3.787,-0.11,-0.01,-0.08,0.05,0.02,0.01
3.79,-0.11,-0.01,-0.08,0.05,0.02,0.01
3.792,-0.12,0.00,-0.10,0.05,0.02,0.01
3.792,-0.12,0.00,-0.10,0.05,0.01,0.01
3.795,-0.12,0.00,-0.10,0.05,0.01,0.01
3.795,-0.10,-0.04,-0.09,0.05,0.01,0.01
3.799,-0.10,-0.04,-0.09,0.04,0.01,0.01
3.799,-0.10,-0.04,-0.09,0.04,0.00,0.01
3.799,-0.07,-0.06,-0.10,0.04,0.00,0.01
3.803,-0.07,-0.06,-0.10,0.04,0.00,0.01
3.803,-0.04,-0.07,-0.12,0.04,0.00,0.01
3.803,-0.04,-0.07,-0.12,0.04,-0.01,0.01
3.808,-0.04,-0.07,-0.12,0.04,-0.01,0.02
3.808,-0.00,-0.08,-0.12,0.04,-0.01,0.02
3.811,-0.00,-0.08,-0.12,0.03,-0.01,0.02
3.812,-0.00,-0.08,-0.12,0.03,-0.01,0.02
3.812,0.00,-0.06,-0.14,0.03,-0.01,0.02
3.815,0.00,-0.06,-0.14,0.03,-0.02,0.02
3.816,0.03,-0.09,-0.14,0.03,-0.02,0.02
3.819,0.03,-0.09,-0.14,0.03,-0.02,0.02
3.82,0.06,-0.10,-0.13,0.03,-0.02,0.02
3.82,0.06,-0.10,-0.13,0.03,-0.03,0.02
3.824,0.06,-0.09,-0.15,0.03,-0.03,0.02
3.825,0.06,-0.09,-0.15,0.03,-0.03,0.02
3.825,0.06,-0.09,-0.15,0.03,-0.03,0.02
3.828,0.06,-0.09,-0.15,0.02,-0.04,0.02
3.828,0.09,-0.10,-0.13,0.02,-0.04,0.02
3.831,0.09,-0.10,-0.13,0.02,-0.04,0.02
3.831,0.12,-0.10,-0.15,0.02,-0.04,0.02
3.831,0.12,-0.10,-0.15,0.02,-0.05,0.02
3.835,0.12,-0.10,-0.15,0.02,-0.05,0.02
3.835,0.10,-0.07,-0.14,0.02,-0.05,0.02
3.849,0.10,-0.07,-0.14,0.02,-0.06,0.01
3.849,0.10,-0.07,-0.14,0.01,-0.07,0.01
3.849,0.12,-0.05,-0.12,0.01,-0.07,0.01
3.849,0.12,-0.05,-0.12,0.01,-0.07,0.01
3.849,0.12,-0.05,-0.12,0.01,-0.08,0.01
3.85,0.12,0.00,-0.14,0.01,-0.08,0.01
3.85,0.12,0.04,-0.16,0.01,-0.08,0.01
3.85,0.12,0.04,-0.16,0.01,-0.09,0.01
3.854,0.12,0.04,-0.16,0.01,-0.09,0.01
3.854,0.13,0.06,-0.13,0.01,-0.09,0.01
3.854,0.13,0.06,-0.13,0.01,-0.10,0.01
3.854,0.13,0.06,-0.13,0.00,-0.10,0.01
3.855,0.13,0.11,-0.14,0.00,-0.10,0.01
3.864,0.13,0.11,-0.14,-0.00,-0.11,0.01
3.864,0.13,0.11,-0.14,-0.00,-0.12,0.01
3.864,0.12,0.12,-0.13,-0.00,-0.12,0.01
3.864,0.12,0.12,-0.13,-0.00,-0.13,0.01
3.864,0.12,0.12,-0.13,-0.01,-0.13,0.01
3.864,0.13,0.14,-0.12,-0.01,-0.13,0.01
3.866,0.13,0.15,-0.13,-0.01,-0.13,0.01
3.867,0.13,0.15,-0.13,-0.01,-0.14,0.01
3.87,0.13,0.15,-0.13,-0.02,-0.15,0.00
3.87,0.13,0.14,-0.12,-0.02,-0.15,0.00
3.871,0.13,0.14,-0.12,-0.02,-0.16,0.00
3.874,0.13,0.14,-0.12,-0.02,-0.16,0.00
3.875,0.13,0.14,-0.13,-0.02,-0.16,0.00
3.879,0.13,0.14,-0.13,-0.03,-0.17,-0.00
3.879,0.13,0.14,-0.13,-0.03,-0.17,-0.00
3.879,0.12,0.09,-0.12,-0.03,-0.17,-0.00
3.882,0.12,0.09,-0.12,-0.03,-0.18,-0.00
3.883,0.12,0.09,-0.12,-0.04,-0.19,-0.00
3.884,0.11,0.08,-0.08,-0.04,-0.19,-0.00
3.887,0.12,0.06,-0.08,-0.04,-0.19,-0.00
3.887,0.12,0.06,-0.08,-0.04,-0.19,-0.01
3.889,0.12,0.06,-0.08,-0.04,-0.20,-0.01
3.89,0.12,0.06,-0.08,-0.04,-0.21,-0.01
3.891,0.10,0.03,-0.07,-0.04,-0.21,-0.01
3.895,0.10,0.03,-0.07,-0.05,-0.21,-0.01
3.895,0.08,0.01,-0.05,-0.05,-0.21,-0.01
3.899,0.08,0.01,-0.05,-0.04,-0.21,-0.01
3.899,0.08,0.01,-0.05,-0.04,-0.22,-0.01
3.899,0.05,-0.02,-0.03,-0.04,-0.22,-0.01
3.903,0.05,-0.02,-0.03,-0.05,-0.22,-0.01
3.904,0.02,-0.03,-0.03,-0.05,-0.22,-0.01
3.904,0.02,-0.03,-0.03,-0.04,-0.22,-0.00
3.908,0.02,-0.03,-0.03,-0.04,-0.23,-0.00
3.908,0.01,-0.05,-0.02,-0.04,-0.23,-0.00
3.911,0.01,-0.05,-0.02,-0.04,-0.23,-0.00
3.911,0.01,-0.05,-0.02,-0.04,-0.23,-0.00
3.912,0.00,-0.07,0.00,-0.04,-0.23,-0.00
3.914,0.00,-0.07,0.00,-0.04,-0.23,-0.00
3.915,0.00,-0.09,0.00,-0.04,-0.23,-0.00
3.919,0.00,-0.09,0.00,-0.04,-0.23,-0.00
3.919,0.00,-0.09,0.00,-0.03,-0.22,-0.00
3.919,-0.01,-0.10,0.02,-0.03,-0.22,-0.00
3.923,-0.01,-0.10,0.02,-0.03,-0.22,0.00
3.924,-0.01,-0.10,0.02,-0.03,-0.22,0.00
3.925,-0.00,-0.07,0.02,-0.03,-0.22,0.00
3.927,-0.04,-0.04,0.05,-0.03,-0.22,0.00
3.927,-0.04,-0.04,0.05,-0.02,-0.22,0.01
3.931,-0.04,-0.04,0.05,-0.02,-0.22,0.01
3.931,-0.04,-0.04,0.05,-0.02,-0.21,0.01
3.931,-0.07,-0.01,0.06,-0.02,-0.21,0.01
3.935,-0.07,-0.01,0.06,-0.02,-0.21,0.01
3.939,-0.07,-0.01,0.06,-0.01,-0.20,0.02
3.939,-0.07,-0.01,0.06,-0.01,-0.20,0.02
3.944,-0.07,-0.01,0.06,-0.01,-0.20,0.02
3.944,-0.05,0.02,0.06,-0.01,-0.20,0.02
3.945,-0.05,0.02,0.06,-0.00,-0.19,0.02
3.945,-0.00,0.05,0.06,-0.00,-0.19,0.02
3.947,-0.00,0.05,0.06,-0.00,-0.18,0.02
3.947,-0.01,0.07,0.02,-0.00,-0.18,0.02
3.948,-0.01,0.07,0.02,0.00,-0.18,0.03
3.95,-0.01,0.07,0.02,0.00,-0.17,0.03
3.952,-0.01,0.07,0.02,0.00,-0.16,0.03
3.953,0.05,0.08,0.01,0.00,-0.16,0.03
3.956,0.05,0.08,0.01,0.00,-0.15,0.03
3.956,0.07,0.09,-0.01,0.00,-0.15,0.03
3.958,0.07,0.09,-0.01,0.00,-0.14,0.03
3.96,0.12,0.07,-0.03,0.00,-0.14,0.03
3.961,0.12,0.07,-0.03,0.00,-0.14,0.03
3.964,0.12,0.07,-0.03,0.00,-0.13,0.03
3.964,0.12,0.07,-0.05,0.00,-0.13,0.03
3.964,0.12,0.07,-0.05,0.00,-0.12,0.03
3.967,0.12,0.07,-0.05,-0.00,-0.12,0.03
3.968,0.18,0.02,-0.08,-0.00,-0.12,0.03
3.972,0.21,-0.01,-0.10,-0.00,-0.12,0.03
3.972,0.21,-0.01,-0.10,-0.01,-0.11,0.03
3.972,0.21,-0.01,-0.10,-0.01,-0.10,0.03
3.975,0.21,-0.01,-0.10,-0.02,-0.10,0.03
3.976,0.21,0.00,-0.11,-0.02,-0.10,0.03
3.98,0.21,0.00,-0.11,-0.02,-0.09,0.03
3.98,0.24,-0.03,-0.12,-0.02,-0.09,0.03
3.98,0.24,-0.03,-0.12,-0.03,-0.09,0.02
3.983,0.24,-0.03,-0.12,-0.03,-0.08,0.02
3.983,0.24,-0.03,-0.12,-0.04,-0.08,0.02
3.983,0.25,-0.09,-0.13,-0.04,-0.08,0.02
3.988,0.25,-0.09,-0.13,-0.05,-0.08,0.02
3.988,0.28,-0.10,-0.13,-0.05,-0.08,0.02
3.99,0.28,-0.10,-0.13,-0.05,-0.07,0.02
4.005,0.30,-0.13,-0.13,-0.05,-0.07,0.02
4.005,0.30,-0.13,-0.13,-0.06,-0.07,0.02
4.005,0.30,-0.13,-0.13,-0.06,-0.07,0.02
4.006,0.29,-0.17,-0.10,-0.06,-0.07,0.02
4.006,0.29,-0.17,-0.10,-0.07,-0.07,0.01
4.006,0.29,-0.17,-0.10,-0.07,-0.07,0.01
4.006,0.31,-0.18,-0.08,-0.07,-0.07,0.01
4.006,0.31,-0.18,-0.08,-0.08,-0.06,0.01
4.006,0.31,-0.20,-0.05,-0.08,-0.06,0.01
4.006,0.31,-0.20,-0.05,-0.08,-0.06,0.02
4.009,0.31,-0.20,-0.05,-0.08,-0.06,0.01
4.009,0.32,-0.17,-0.02,-0.08,-0.06,0.01
4.009,0.32,-0.17,-0.02,-0.09,-0.06,0.01
4.014,0.32,-0.17,-0.02,-0.09,-0.06,0.01
4.014,0.29,-0.17,-0.01,-0.09,-0.06,0.01
4.014,0.29,-0.17,-0.01,-0.09,-0.06,0.01
4.016,0.26,-0.13,0.02,-0.09,-0.06,0.01
4.017,0.26,-0.13,0.02,-0.09,-0.06,0.01
4.021,0.26,-0.13,0.02,-0.09,-0.06,0.01
4.021,0.26,-0.13,0.02,-0.09,-0.06,0.01
4.021,0.28,-0.09,0.05,-0.09,-0.06,0.01
4.025,0.28,-0.09,0.05,-0.09,-0.05,0.01
4.026,0.28,-0.04,0.09,-0.09,-0.05,0.01
4.028,0.28,-0.04,0.09,-0.09,-0.05,0.01
4.029,0.26,-0.02,0.10,-0.09,-0.05,0.01
4.029,0.26,-0.02,0.10,-0.09,-0.05,0.01
4.033,0.26,-0.02,0.10,-0.08,-0.05,0.01
4.033,0.26,0.00,0.11,-0.08,-0.05,0.01
4.035,0.26,0.00,0.11,-0.08,-0.04,0.01
4.036,0.26,0.03,0.13,-0.08,-0.04,0.01
4.037,0.26,0.03,0.13,-0.08,-0.05,0.01
4.044,0.26,0.03,0.13,-0.08,-0.04,0.01
4.045,0.25,0.06,0.15,-0.08,-0.04,0.01
4.045,0.25,0.06,0.15,-0.08,-0.04,0.00
4.045,0.25,0.06,0.15,-0.07,-0.04,0.00
4.046,0.23,0.05,0.16,-0.07,-0.04,0.00
4.048,0.23,0.05,0.16,-0.07,-0.04,0.00
4.048,0.22,0.06,0.17,-0.07,-0.04,0.00
4.049,0.22,0.06,0.17,-0.07,-0.04,-0.00
4.053,0.22,0.06,0.17,-0.06,-0.04,-0.00
4.054,0.20,0.04,0.18,-0.06,-0.04,-0.00
4.054,0.20,0.04,0.18,-0.06,-0.03,-0.01
4.057,0.16,0.04,0.19,-0.06,-0.03,-0.01
4.058,0.16,0.04,0.19,-0.06,-0.03,-0.01
4.062,0.16,0.04,0.19,-0.06,-0.03,-0.01
4.062,0.16,0.04,0.19,-0.05,-0.03,-0.01
4.062,0.14,0.01,0.18,-0.05,-0.03,-0.01
4.065,0.14,0.01,0.18,-0.05,-0.03,-0.01
4.065,0.10,0.03,0.20,-0.05,-0.03,-0.01
4.069,0.10,0.03,0.20,-0.05,-0.03,-0.01
4.069,0.04,-0.01,0.21,-0.05,-0.03,-0.01
4.069,0.04,-0.01,0.21,-0.05,-0.03,-0.01
4.073,0.04,-0.01,0.21,-0.05,-0.04,-0.01
4.073,0.03,0.03,0.21,-0.05,-0.04,-0.01
4.073,0.03,0.03,0.21,-0.04,-0.04,-0.01
4.076,-0.02,0.01,0.23,-0.04,-0.04,-0.01
4.08,-0.02,0.01,0.23,-0.04,-0.04,-0.01
4.082,-0.02,0.01,0.23,-0.04,-0.04,-0.01
4.082,-0.05,-0.01,0.23,-0.04,-0.04,-0.01
4.082,-0.05,-0.01,0.23,-0.03,-0.04,-0.01
4.085,-0.05,-0.01,0.23,-0.03,-0.05,-0.01
4.085,-0.06,0.00,0.26,-0.03,-0.05,-0.01
4.089,-0.06,0.00,0.26,-0.03,-0.05,-0.01
4.089,-0.10,0.00,0.26,-0.03,-0.05,-0.01
4.089,-0.10,0.00,0.26,-0.02,-0.05,-0.01
4.093,-0.14,0.03,0.26,-0.02,-0.05,-0.01
4.094,-0.14,0.03,0.26,-0.02,-0.05,-0.01
4.094,-0.14,0.03,0.26,-0.01,-0.06,-0.01
4.097,-0.14,0.02,0.28,-0.01,-0.06,-0.01
4.098,-0.14,0.02,0.28,-0.01,-0.06,-0.01
4.101,-0.19,0.01,0.28,-0.01,-0.06,-0.01
4.105,-0.19,0.03,0.29,-0.01,-0.06,-0.01
4.11,-0.19,0.03,0.29,-0.00,-0.06,-0.01
4.11,-0.19,0.03,0.29,0.01,-0.06,-0.01
4.11,-0.19,0.03,0.29,0.01,-0.07,-0.01
4.111,-0.19,0.03,0.29,0.02,-0.06,-0.01
4.111,-0.18,0.04,0.28,0.02,-0.06,-0.01
4.111,-0.18,0.04,0.28,0.02,-0.06,-0.01
4.113,-0.18,0.04,0.28,0.03,-0.06,-0.01
4.114,-0.19,0.04,0.28,0.03,-0.06,-0.01
4.114,-0.19,0.04,0.28,0.03,-0.06,-0.01
4.116,-0.20,0.06,0.26,0.03,-0.06,-0.01
4.117,-0.20,0.06,0.26,0.03,-0.06,-0.01
4.121,-0.20,0.06,0.26,0.04,-0.06,-0.00
4.121,-0.20,0.06,0.26,0.04,-0.06,-0.00
4.122,-0.18,0.08,0.24,0.04,-0.06,-0.00
4.124,-0.20,0.10,0.24,0.04,-0.06,-0.00
4.125,-0.20,0.10,0.24,0.05,-0.05,-0.00
4.128,-0.20,0.10,0.24,0.05,-0.05,-0.00
4.129,-0.17,0.10,0.20,0.05,-0.05,-0.00
4.129,-0.17,0.10,0.20,0.06,-0.04,-0.00
4.133,-0.17,0.10,0.20,0.06,-0.04,0.00
4.133,-0.14,0.08,0.18,0.06,-0.04,0.00
4.133,-0.14,0.08,0.18,0.06,-0.03,0.00
4.137,-0.14,0.07,0.17,0.06,-0.03,0.00
4.137,-0.14,0.07,0.17,0.07,-0.02,0.00
4.141,-0.14,0.07,0.17,0.07,-0.02,0.00
4.141,-0.14,0.07,0.17,0.07,-0.01,0.00
4.141,-0.09,0.03,0.14,0.07,-0.01,0.00
4.146,-0.09,0.03,0.14,0.08,-0.00,-0.00
4.166,-0.09,-0.00,0.11,0.08,-0.00,-0.00
4.166,-0.10,-0.01,0.09,0.08,-0.00,-0.00
4.166,-0.10,-0.01,0.09,0.08,0.01,0.00
4.167,-0.10,-0.01,0.09,0.08,0.01,0.00
4.167,-0.10,-0.01,0.09,0.08,0.02,0.00
4.167,-0.06,-0.04,0.06,0.08,0.02,0.00
4.167,-0.06,-0.04,0.06,0.08,0.03,0.00
4.168,-0.07,-0.04,0.05,0.08,0.03,0.00
4.168,-0.07,-0.04,0.05,0.08,0.04,-0.00
4.168,-0.07,-0.04,0.05,0.09,0.05,-0.00
4.168,-0.05,-0.05,0.01,0.09,0.05,-0.00
4.168,-0.05,-0.05,0.01,0.09,0.06,-0.00
4.169,-0.05,-0.05,0.01,0.09,0.06,-0.00
4.169,-0.04,-0.05,0.01,0.09,0.06,-0.00
4.169,-0.02,-0.02,-0.01,0.09,0.06,-0.00
4.169,-0.02,-0.02,-0.01,0.09,0.07,-0.00
4.17,-0.02,-0.02,-0.01,0.09,0.08,-0.00
4.17,-0.03,-0.00,-0.04,0.09,0.08,-0.00
4.171,-0.03,-0.00,-0.04,0.09,0.09,-0.00
4.174,-0.03,-0.00,-0.04,0.09,0.09,-0.00
4.175,-0.00,-0.04,-0.03,0.09,0.09,-0.00
4.178,-0.00,-0.04,-0.03,0.09,0.10,-0.00
4.18,-0.00,-0.04,-0.03,0.09,0.11,-0.01
4.18,-0.02,-0.01,-0.08,0.09,0.11,-0.01
4.182,-0.02,-0.01,-0.08,0.09,0.11,-0.01
4.183,-0.02,-0.01,-0.08,0.09,0.11,-0.01
4.183,0.00,0.00,-0.09,0.09,0.11,-0.01
4.187,0.00,0.00,-0.09,0.09,0.11,-0.01
4.187,0.01,-0.01,-0.11,0.09,0.11,-0.01
4.19,0.01,-0.01,-0.11,0.08,0.12,-0.01
4.191,0.01,-0.01,-0.11,0.08,0.12,-0.01
4.191,0.01,0.01,-0.12,0.08,0.12,-0.01
4.194,0.01,0.01,-0.12,0.08,0.12,-0.01
4.196,-0.03,0.00,-0.14,0.08,0.12,-0.01
4.204,-0.03,0.00,-0.14,0.07,0.12,-0.01
4.205,-0.03,0.00,-0.14,0.07,0.11,-0.01
4.205,-0.03,0.01,-0.15,0.07,0.11,-0.01
4.205,-0.03,0.01,-0.15,0.06,0.11,-0.02
4.205,-0.03,0.01,-0.15,0.06,0.11,-0.02
4.205,-0.02,0.05,-0.14,0.06,0.11,-0.02
4.208,-0.02,0.05,-0.14,0.05,0.10,-0.02
4.208,-0.08,0.03,-0.15,0.05,0.10,-0.02
4.214,-0.06,0.04,-0.16,0.05,0.10,-0.02
4.214,-0.06,0.04,-0.16,0.05,0.10,-0.02
4.214,-0.06,0.04,-0.16,0.04,0.09,-0.02
4.214,-0.06,0.04,-0.16,0.04,0.08,-0.02
4.215,-0.06,0.03,-0.18,0.04,0.08,-0.02
4.218,-0.06,0.03,-0.18,0.03,0.08,-0.02
4.218,-0.06,0.03,-0.18,0.03,0.07,-0.02
4.219,-0.09,0.02,-0.17,0.03,0.07,-0.02
4.222,-0.09,0.02,-0.17,0.02,0.06,-0.02
4.223,-0.11,0.02,-0.14,0.02,0.06,-0.02
4.223,-0.11,0.02,-0.14,0.01,0.05,-0.02
4.226,-0.12,0.01,-0.16,0.01,0.05,-0.02
4.227,-0.12,0.01,-0.16,0.01,0.04,-0.02
4.231,-0.12,0.01,-0.16,0.00,0.02,-0.02
4.231,-0.12,0.01,-0.16,-0.01,0.01,-0.02
4.231,-0.16,0.00,-0.15,-0.01,0.01,-0.02
4.235,-0.16,0.00,-0.15,-0.01,0.00,-0.02
4.235,-0.16,-0.03,-0.16,-0.01,0.00,-0.02
4.239,-0.16,-0.03,-0.16,-0.02,-0.01,-0.02
4.239,-0.16,-0.03,-0.16,-0.02,-0.02,-0.02
4.24,-0.19,-0.03,-0.13,-0.02,-0.02,-0.02
4.243,-0.19,-0.03,-0.13,-0.03,-0.04,-0.02
4.244,-0.22,-0.05,-0.13,-0.03,-0.04,-0.02
4.244,-0.22,-0.05,-0.13,-0.04,-0.05,-0.02
4.247,-0.22,-0.05,-0.13,-0.04,-0.06,-0.02
4.248,-0.20,-0.05,-0.11,-0.04,-0.06,-0.02
4.251,-0.20,-0.05,-0.11,-0.04,-0.07,-0.02
4.251,-0.19,-0.10,-0.08,-0.04,-0.07,-0.02
4.251,-0.19,-0.10,-0.08,-0.05,-0.08,-0.02
4.255,-0.19,-0.10,-0.08,-0.05,-0.09,-0.01
4.255,-0.24,-0.06,-0.05,-0.05,-0.09,-0.01
4.26,-0.24,-0.06,-0.05,-0.05,-0.10,-0.01
4.26,-0.21,-0.06,-0.03,-0.05,-0.10,-0.01
4.26,-0.21,-0.06,-0.03,-0.05,-0.11,-0.01
4.263,-0.21,-0.06,-0.03,-0.05,-0.12,-0.01
4.263,-0.23,-0.07,-0.03,-0.05,-0.12,-0.01
4.263,-0.23,-0.07,-0.03,-0.05,-0.13,-0.01
4.267,-0.23,-0.07,-0.03,-0.05,-0.13,-0.01
4.268,-0.20,-0.08,-0.02,-0.05,-0.13,-0.01
4.271,-0.20,-0.08,-0.02,-0.05,-0.14,-0.00
4.272,-0.25,-0.06,-0.00,-0.05,-0.14,-0.00
4.272,-0.25,-0.06,-0.00,-0.05,-0.14,-0.00
4.274,-0.25,-0.06,-0.00,-0.04,-0.15,0.00
4.276,-0.20,-0.07,0.03,-0.04,-0.15,0.00
4.279,-0.20,-0.07,0.03,-0.04,-0.15,0.00
4.279,-0.20,-0.07,0.03,-0.04,-0.15,0.00
4.28,-0.21,-0.06,0.04,-0.04,-0.15,0.00
4.282,-0.21,-0.06,0.04,-0.03,-0.16,0.01
4.283,-0.18,-0.05,0.04,-0.03,-0.16,0.01
4.283,-0.18,-0.05,0.04,-0.03,-0.15,0.01
4.287,-0.18,-0.05,0.04,-0.03,-0.16,0.01
4.287,-0.14,-0.05,0.04,-0.03,-0.16,0.01
4.29,-0.14,-0.05,0.04,-0.02,-0.16,0.01
4.291,-0.14,-0.05,0.04,-0.02,-0.16,0.01
4.291,-0.13,-0.04,0.04,-0.02,-0.16,0.01
4.295,-0.13,-0.04,0.04,-0.02,-0.15,0.01
4.296,-0.08,-0.05,0.05,-0.02,-0.15,0.01
4.301,-0.08,-0.05,0.05,-0.01,-0.15,0.01
4.316,-0.08,-0.05,0.05,-0.01,-0.14,0.01
4.316,-0.09,-0.03,0.03,-0.01,-0.14,0.01
4.316,-0.09,-0.03,0.03,-0.01,-0.14,0.01
4.317,-0.06,-0.01,0.02,-0.01,-0.14,0.01
4.317,-0.06,-0.01,0.02,-0.01,-0.14,0.01
4.317,-0.06,-0.03,0.03,-0.01,-0.14,0.01
4.317,-0.06,-0.03,0.03,-0.00,-0.13,0.01
4.317,-0.06,-0.03,0.03,-0.00,-0.13,0.01
4.318,-0.06,-0.03,0.03,0.00,-0.12,0.01
4.318,-0.02,-0.05,0.02,0.00,-0.12,0.01
4.318,-0.02,-0.05,0.02,0.00,-0.12,0.01
4.318,-0.00,-0.02,-0.01,0.00,-0.12,0.01
4.319,-0.00,-0.02,-0.01,0.00,-0.11,0.01
4.319,-0.00,-0.02,-0.01,0.00,-0.11,0.01
4.319,0.03,-0.04,-0.00,0.00,-0.11,0.01
4.322,0.03,-0.04,-0.00,0.01,-0.10,0.01
4.323,0.03,-0.04,-0.00,0.01,-0.10,0.01
4.324,0.03,-0.05,-0.00,0.01,-0.10,0.01
4.327,0.03,-0.05,-0.00,0.01,-0.09,0.01
4.327,0.07,-0.05,-0.01,0.01,-0.09,0.01
4.33,0.07,-0.05,-0.01,0.01,-0.08,0.01
4.33,0.09,-0.03,-0.03,0.01,-0.08,0.01
4.33,0.09,-0.03,-0.03,0.01,-0.07,0.01
4.334,0.09,-0.03,-0.03,0.02,-0.07,0.01
4.334,0.11,-0.01,-0.03,0.02,-0.07,0.01
4.338,0.11,-0.01,-0.03,0.01,-0.06,0.01
4.339,0.11,-0.01,-0.03,0.01,-0.05,0.01
4.339,0.14,-0.02,-0.03,0.01,-0.05,0.01
4.343,0.14,-0.02,-0.03,0.02,-0.04,0.01
4.344,0.15,-0.02,-0.05,0.02,-0.04,0.01
4.345,0.15,-0.02,-0.05,0.02,-0.03,0.01
4.346,0.15,-0.02,-0.05,0.02,-0.02,0.01
4.347,0.15,-0.03,-0.05,0.02,-0.02,0.01
4.349,0.15,-0.03,-0.05,0.02,-0.01,0.01
4.351,0.15,-0.03,-0.06,0.02,-0.01,0.01
4.352,0.15,-0.03,-0.06,0.02,0.00,0.01
4.354,0.15,-0.03,-0.06,0.03,0.01,0.01
4.355,0.19,0.01,-0.06,0.03,0.01,0.01
4.358,0.19,0.01,-0.06,0.03,0.02,0.01
4.36,0.19,0.01,-0.06,0.03,0.04,0.01
4.36,0.19,0.00,-0.06,0.03,0.04,0.01
4.363,0.19,0.00,-0.06,0.03,0.05,0.01
4.364,0.21,0.05,-0.07,0.03,0.05,0.01
4.364,0.21,0.05,-0.07,0.03,0.06,0.01
4.367,0.21,0.05,-0.07,0.03,0.07,0.01
4.367,0.25,0.08,-0.09,0.03,0.07,0.01
4.371,0.25,0.08,-0.09,0.03,0.08,0.01
4.371,0.25,0.08,-0.09,0.04,0.09,0.00
4.371,0.23,0.09,-0.08,0.04,0.09,0.00
4.375,0.23,0.09,-0.08,0.04,0.10,0.00
4.377,0.21,0.06,-0.09,0.04,0.10,0.00
4.38,0.21,0.06,-0.09,0.04,0.11,0.00
4.38,0.23,0.06,-0.08,0.04,0.11,0.00
4.38,0.23,0.06,-0.08,0.05,0.13,0.00
4.383,0.23,0.06,-0.08,0.05,0.14,0.00
4.383,0.23,0.06,-0.08,0.05,0.14,0.00
4.383,0.23,0.06,-0.08,0.05,0.15,0.00
4.387,0.23,0.08,-0.08,0.05,0.15,0.00
4.388,0.23,0.08,-0.08,0.05,0.16,0.00
4.391,0.23,0.08,-0.08,0.06,0.17,0.00
4.391,0.22,0.06,-0.06,0.06,0.17,0.00
4.391,0.22,0.06,-0.06,0.06,0.18,0.00
4.394,0.22,0.06,-0.06,0.07,0.19,0.00
4.395,0.22,0.03,-0.06,0.07,0.19,0.00
4.399,0.22,0.03,-0.06,0.07,0.20,-0.00
4.4,0.23,0.02,-0.06,0.07,0.20,-0.00
4.4,0.23,0.02,-0.06,0.07,0.21,-0.00
4.403,0.23,0.02,-0.06,0.08,0.21,-0.00
4.404,0.23,0.02,-0.06,0.08,0.22,-0.00
4.404,0.21,0.02,-0.09,0.08,0.22,-0.00
4.407,0.19,0.03,-0.08,0.08,0.22,-0.00
4.408,0.19,0.03,-0.08,0.08,0.23,-0.00
4.414,0.19,0.03,-0.08,0.09,0.24,-0.01
4.414,0.19,0.03,-0.08,0.10,0.24,-0.01
4.414,0.19,0.05,-0.09,0.10,0.24,-0.01
4.415,0.19,0.05,-0.09,0.10,0.25,-0.01
4.415,0.19,0.04,-0.11,0.10,0.25,-0.01
4.418,0.19,0.04,-0.11,0.10,0.25,-0.01
4.419,0.19,0.04,-0.11,0.11,0.26,-0.01
4.42,0.17,0.06,-0.15,0.11,0.26,-0.01
4.422,0.17,0.06,-0.15,0.11,0.26,-0.01
4.423,0.17,0.06,-0.15,0.11,0.27,-0.01
4.423,0.17,0.07,-0.15,0.11,0.27,-0.01
4.428,0.15,0.08,-0.17,0.11,0.27,-0.01
4.428,0.15,0.08,-0.17,0.11,0.27,-0.01
4.43,0.15,0.08,-0.17,0.12,0.27,-0.01
4.431,0.16,0.07,-0.19,0.12,0.27,-0.01
4.431,0.16,0.07,-0.19,0.12,0.27,-0.01
4.435,0.16,0.07,-0.19,0.12,0.28,-0.01
4.435,0.15,0.05,-0.22,0.12,0.28,-0.01
4.439,0.15,0.05,-0.22,0.11,0.28,-0.01
4.439,0.15,0.05,-0.22,0.12,0.28,-0.01
4.439,0.15,0.10,-0.22,0.12,0.28,-0.01
4.443,0.15,0.10,-0.22,0.12,0.28,-0.01
4.445,0.15,0.10,-0.22,0.11,0.27,-0.01
4.445,0.15,0.05,-0.25,0.11,0.27,-0.01
4.447,0.15,0.06,-0.26,0.11,0.27,-0.01
4.447,0.15,0.06,-0.26,0.11,0.27,-0.01
4.451,0.15,0.06,-0.26,0.11,0.27,-0.01
4.452,0.15,0.06,-0.26,0.11,0.27,-0.01
4.473,0.14,0.06,-0.25,0.11,0.27,-0.01
4.473,0.14,0.06,-0.25,0.10,0.26,-0.01
4.473,0.16,0.02,-0.30,0.10,0.26,-0.01
4.474,0.16,0.02,-0.30,0.10,0.26,-0.01
4.474,0.13,0.02,-0.33,0.10,0.26,-0.01
4.474,0.13,0.02,-0.33,0.10,0.26,-0.01
4.474,0.13,0.02,-0.33,0.09,0.26,-0.01
4.474,0.13,0.02,-0.33,0.09,0.25,-0.01
4.475,0.12,-0.00,-0.32,0.09,0.25,-0.01
4.475,0.12,-0.02,-0.34,0.09,0.25,-0.01
4.475,0.12,-0.02,-0.34,0.09,0.24,-0.01
4.475,0.12,-0.02,-0.34,0.08,0.24,-0.01
4.475,0.12,-0.03,-0.35,0.08,0.24,-0.01
4.475,0.12,-0.03,-0.35,0.08,0.23,-0.01
4.476,0.12,-0.03,-0.35,0.07,0.23,-0.01
4.476,0.14,-0.04,-0.35,0.07,0.23,-0.01
4.478,0.14,-0.04,-0.35,0.07,0.22,-0.01
4.479,0.14,-0.04,-0.35,0.06,0.21,-0.01
4.479,0.15,-0.03,-0.36,0.06,0.21,-0.01
4.482,0.15,-0.03,-0.36,0.06,0.20,-0.01
4.483,0.16,-0.00,-0.35,0.06,0.20,-0.01
4.483,0.16,-0.00,-0.35,0.05,0.20,-0.01
4.487,0.15,0.01,-0.35,0.05,0.20,-0.01
4.487,0.15,0.01,-0.35,0.05,0.20,-0.01
4.49,0.15,0.01,-0.35,0.04,0.19,-0.01
4.49,0.17,0.03,-0.35,0.04,0.19,-0.01
4.491,0.17,0.03,-0.35,0.04,0.18,-0.01
4.494,0.17,0.03,-0.35,0.03,0.17,-0.01
4.495,0.16,0.05,-0.34,0.03,0.17,-0.01
4.498,0.16,0.05,-0.34,0.03,0.17,-0.01
4.499,0.16,0.05,-0.34,0.02,0.16,-0.01
4.5,0.15,0.03,-0.34,0.02,0.16,-0.01
4.502,0.15,0.03,-0.34,0.02,0.16,-0.01
4.503,0.16,0.05,-0.33,0.02,0.16,-0.01
4.503,0.16,0.05,-0.33,0.02,0.15,-0.01
4.507,0.15,0.05,-0.30,0.02,0.15,-0.01
4.507,0.15,0.05,-0.30,0.02,0.14,-0.02
4.513,0.15,0.05,-0.30,0.01,0.14,-0.01
4.514,0.13,0.04,-0.31,0.01,0.14,-0.01
4.514,0.13,0.04,-0.31,0.01,0.13,-0.02
4.515,0.12,0.04,-0.29,0.01,0.13,-0.02
4.515,0.12,0.04,-0.29,0.01,0.12,-0.02
4.519,0.12,0.04,-0.29,0.00,0.12,-0.02
4.519,0.12,0.04,-0.29,0.00,0.11,-0.02
4.519,0.10,0.02,-0.29,0.00,0.11,-0.02
4.523,0.10,0.02,-0.29,-0.00,0.10,-0.02
4.524,0.12,0.04,-0.30,-0.00,0.10,-0.02
4.524,0.12,0.04,-0.30,-0.00,0.10,-0.02
4.529,0.12,0.04,-0.30,-0.00,0.09,-0.02
4.529,0.09,-0.00,-0.29,-0.00,0.09,-0.02
4.531,0.10,-0.00,-0.28,-0.00,0.09,-0.02
4.531,0.10,-0.00,-0.28,-0.01,0.09,-0.02
4.531,0.10,-0.00,-0.28,-0.01,0.08,-0.02
4.535,0.10,-0.00,-0.28,-0.01,0.07,-0.02
4.535,0.07,-0.03,-0.28,-0.01,0.07,-0.02
4.539,0.07,-0.03,-0.28,-0.02,0.07,-0.02
4.54,0.10,-0.01,-0.28,-0.02,0.07,-0.02
4.54,0.10,-0.01,-0.28,-0.02,0.06,-0.02
4.543,0.10,-0.01,-0.28,-0.03,0.05,-0.02
4.543,0.09,-0.03,-0.28,-0.03,0.05,-0.02
4.543,0.09,-0.03,-0.28,-0.03,0.04,-0.02
4.551,0.08,-0.05,-0.27,-0.03,0.04,-0.02
4.552,0.08,-0.05,-0.27,-0.04,0.04,-0.02
4.552,0.08,-0.05,-0.27,-0.04,0.03,-0.02
4.553,0.06,-0.05,-0.29,-0.04,0.03,-0.02
4.553,0.06,-0.05,-0.29,-0.05,0.03,-0.02
4.555,0.06,-0.05,-0.29,-0.05,0.02,-0.02
4.555,0.07,-0.06,-0.26,-0.05,0.02,-0.02
4.559,0.07,-0.06,-0.26,-0.06,0.01,-0.02
4.56,0.06,-0.05,-0.26,-0.06,0.01,-0.02
4.56,0.06,-0.05,-0.26,-0.06,0.00,-0.02
4.565,0.06,-0.05,-0.26,-0.07,-0.00,-0.02
4.565,0.06,-0.05,-0.26,-0.07,-0.01,-0.02
4.566,0.05,-0.09,-0.24,-0.07,-0.01,-0.02
4.568,0.05,-0.09,-0.24,-0.08,-0.02,-0.02
4.568,0.06,-0.08,-0.24,-0.08,-0.02,-0.02
4.571,0.06,-0.08,-0.24,-0.08,-0.02,-0.02
4.571,0.06,-0.08,-0.24,-0.09,-0.03,-0.02
4.572,0.08,-0.06,-0.21,-0.09,-0.03,-0.02
4.575,0.08,-0.06,-0.21,-0.10,-0.04,-0.02
4.575,0.01,-0.08,-0.19,-0.10,-0.04,-0.02
4.579,0.01,-0.08,-0.19,-0.10,-0.04,-0.02
4.579,0.01,-0.08,-0.19,-0.10,-0.05,-0.02
4.582,0.02,-0.06,-0.18,-0.10,-0.05,-0.02
4.583,0.02,-0.06,-0.18,-0.11,-0.05,-0.02
4.584,0.02,-0.06,-0.18,-0.11,-0.06,-0.02
4.584,0.02,-0.04,-0.13,-0.11,-0.06,-0.02
4.588,0.02,-0.04,-0.13,-0.12,-0.06,-0.01
4.588,0.00,-0.01,-0.11,-0.12,-0.06,-0.01
4.591,0.00,-0.01,-0.11,-0.12,-0.07,-0.01
4.591,-0.02,-0.04,-0.10,-0.12,-0.07,-0.01
4.592,-0.02,-0.04,-0.10,-0.12,-0.07,-0.01
4.595,-0.02,-0.04,-0.10,-0.12,-0.07,-0.01
4.596,-0.02,0.00,-0.07,-0.12,-0.07,-0.01
4.599,-0.02,0.00,-0.07,-0.12,-0.08,-0.01
4.6,-0.02,0.00,-0.07,-0.12,-0.08,-0.01
4.6,-0.01,0.00,-0.04,-0.12,-0.08,-0.01
4.602,-0.01,0.00,-0.04,-0.12,-0.08,-0.01
4.603,-0.01,0.00,-0.04,-0.12,-0.08,-0.01
4.603,-0.02,0.02,-0.01,-0.12,-0.08,-0.01
4.625,-0.02,0.02,-0.01,-0.12,-0.08,-0.01
4.625,-0.04,0.01,0.02,-0.12,-0.08,-0.01
4.626,-0.04,0.01,0.02,-0.12,-0.08,-0.01
4.626,-0.04,0.01,0.02,-0.12,-0.08,-0.01
4.626,-0.01,-0.00,0.02,-0.12,-0.08,-0.01
4.627,-0.01,-0.00,0.02,-0.12,-0.08,-0.01
4.627,-0.01,-0.00,0.04,-0.12,-0.08,-0.01
4.627,-0.01,-0.00,0.04,-0.12,-0.08,-0.01
4.628,-0.01,-0.00,0.04,-0.12,-0.08,-0.01
4.628,-0.00,-0.02,0.07,-0.12,-0.08,-0.01
4.628,-0.00,-0.02,0.07,-0.12,-0.08,-0.01
4.629,-0.00,-0.02,0.07,-0.12,-0.08,-0.01
4.629,-0.04,-0.01,0.07,-0.12,-0.08,-0.01
4.629,-0.04,-0.01,0.07,-0.11,-0.08,-0.01
4.629,-0.04,-0.03,0.10,-0.11,-0.08,-0.01
4.632,-0.04,-0.03,0.10,-0.11,-0.08,-0.01
4.632,-0.03,-0.03,0.12,-0.11,-0.08,-0.01
4.633,-0.03,-0.03,0.12,-0.11,-0.08,-0.01
4.634,-0.03,-0.03,0.12,-0.11,-0.08,-0.01
4.635,-0.04,-0.02,0.12,-0.11,-0.08,-0.01
4.639,-0.04,-0.02,0.12,-0.11,-0.08,-0.02
4.639,-0.04,-0.02,0.12,-0.11,-0.08,-0.01
4.639,-0.07,-0.03,0.14,-0.11,-0.08,-0.01
4.642,-0.07,-0.03,0.14,-0.11,-0.09,-0.01
4.643,-0.10,-0.03,0.14,-0.11,-0.09,-0.01
4.643,-0.10,-0.03,0.14,-0.11,-0.09,-0.01
4.647,-0.10,-0.03,0.14,-0.11,-0.09,-0.01
4.647,-0.10,-0.01,0.14,-0.11,-0.09,-0.01
4.65,-0.10,-0.01,0.14,-0.11,-0.09,-0.01
4.65,-0.10,-0.01,0.14,-0.12,-0.09,-0.01
4.651,-0.12,-0.00,0.13,-0.12,-0.09,-0.01
4.654,-0.12,-0.00,0.13,-0.12,-0.10,-0.01
4.654,-0.13,-0.01,0.14,-0.12,-0.10,-0.01
4.659,-0.13,-0.01,0.14,-0.11,-0.10,-0.01
4.659,-0.13,-0.01,0.14,-0.11,-0.10,-0.01
4.66,-0.13,0.02,0.17,-0.11,-0.10,-0.01
4.663,-0.13,0.02,0.17,-0.11,-0.11,-0.01
4.665,-0.13,0.02,0.17,-0.11,-0.11,-0.01
4.666,-0.11,0.01,0.20,-0.11,-0.11,-0.01
4.667,-0.11,0.01,0.20,-0.11,-0.10,-0.01
4.667,-0.11,0.01,0.20,-0.11,-0.10,-0.01
4.67,-0.11,0.01,0.20,-0.11,-0.10,-0.01
4.672,-0.11,-0.01,0.22,-0.11,-0.10,-0.01
4.673,-0.11,-0.01,0.22,-0.11,-0.10,-0.01
4.674,-0.11,-0.01,0.22,-0.11,-0.10,-0.00
4.675,-0.11,-0.02,0.25,-0.11,-0.10,-0.00
4.678,-0.11,-0.02,0.25,-0.10,-0.10,-0.00
4.679,-0.11,-0.02,0.25,-0.10,-0.10,-0.01
4.679,-0.11,0.00,0.26,-0.10,-0.10,-0.01
4.683,-0.11,0.00,0.26,-0.09,-0.09,-0.01
4.683,-0.11,-0.01,0.28,-0.09,-0.09,-0.01
4.684,-0.11,-0.01,0.28,-0.09,-0.09,-0.01
4.687,-0.08,-0.02,0.28,-0.09,-0.09,-0.01
4.687,-0.08,-0.02,0.28,-0.08,-0.08,-0.01
4.691,-0.08,-0.02,0.28,-0.08,-0.08,-0.01
4.691,-0.11,0.01,0.31,-0.08,-0.08,-0.01
4.691,-0.11,0.01,0.31,-0.08,-0.07,-0.01
4.696,-0.11,0.01,0.31,-0.07,-0.07,-0.01
4.697,-0.10,-0.02,0.32,-0.07,-0.07,-0.01
4.699,-0.10,-0.02,0.32,-0.06,-0.06,-0.01
4.699,-0.10,-0.02,0.32,-0.05,-0.06,-0.01
4.701,-0.14,-0.02,0.29,-0.05,-0.06,-0.01
4.703,-0.14,-0.02,0.29,-0.05,-0.05,-0.01
4.703,-0.15,-0.02,0.32,-0.05,-0.05,-0.01
4.703,-0.15,-0.02,0.32,-0.04,-0.04,-0.01
4.707,-0.15,-0.02,0.32,-0.03,-0.04,-0.02
4.708,-0.16,-0.04,0.33,-0.03,-0.04,-0.02
4.711,-0.16,-0.04,0.33,-0.03,-0.03,-0.02
