
time,wx,wy,wz,ax,ay,az
0.003,0.05,-0.04,-0.00,0.17,0.05,-0.38
0.004,0.04,0.00,-0.01,0.17,0.05,-0.38
0.005,0.03,0.03,-0.01,0.17,0.05,-0.38
0.006,0.03,0.03,-0.01,0.08,0.05,-0.14
0.006,0.03,0.03,-0.01,0.05,0.05,0.00
0.007,0.03,0.04,-0.00,0.05,0.05,0.00
0.008,0.03,0.04,-0.00,-0.02,0.05,-0.03
0.009,0.04,0.04,0.00,-0.02,0.05,-0.03
0.01,0.04,0.04,0.00,-0.09,0.05,0.01
0.01,0.04,0.05,0.00,-0.09,0.05,0.01
0.011,0.04,0.03,0.01,-0.09,0.05,0.01
0.012,0.04,0.03,0.01,-0.17,0.09,0.01
0.013,0.04,0.03,0.01,-0.18,0.10,-0.01
0.013,0.05,0.02,0.01,-0.18,0.10,-0.01
0.014,0.04,0.01,0.01,-0.18,0.10,-0.01
0.015,0.04,0.01,0.01,-0.19,0.07,0.01
0.021,0.04,0.00,0.02,-0.19,0.07,0.01
0.022,0.04,0.00,0.02,-0.17,0.09,-0.00
0.023,0.04,-0.00,0.01,-0.17,0.09,-0.00
0.024,0.04,-0.00,0.01,-0.11,0.06,-0.06
0.031,0.04,-0.00,0.01,-0.10,0.05,-0.03
0.033,0.04,-0.01,0.02,-0.10,0.05,-0.03
0.034,0.03,-0.01,0.02,-0.10,0.05,-0.03
0.035,0.03,-0.01,0.02,-0.03,0.02,-0.06
0.047,0.03,-0.01,0.02,0.01,-0.01,-0.07
0.049,0.03,-0.01,0.01,0.01,-0.01,-0.07
0.049,0.02,-0.02,0.01,0.01,-0.01,-0.07
0.05,0.02,-0.02,0.01,0.06,-0.01,-0.03
0.05,0.02,-0.02,0.01,0.07,-0.03,-0.06
0.051,0.02,-0.02,0.01,0.07,-0.03,-0.06
0.053,0.02,-0.01,-0.00,0.07,-0.03,-0.06
0.054,0.02,-0.01,-0.00,0.07,-0.01,-0.03
0.058,0.02,-0.02,-0.00,0.07,-0.01,-0.03
0.06,0.02,-0.02,-0.00,0.11,-0.00,0.02
0.064,0.02,-0.02,-0.00,0.13,0.00,0.01
0.065,0.02,-0.02,-0.01,0.13,0.00,0.01
0.068,0.02,-0.02,-0.01,0.07,-0.01,-0.03
0.069,0.02,-0.01,-0.02,0.07,-0.01,-0.03
0.075,0.01,-0.01,-0.02,0.07,-0.01,-0.03
0.077,0.01,-0.01,-0.02,-0.00,0.01,-0.08
0.078,0.01,-0.01,-0.02,-0.00,0.01,-0.08
0.079,0.01,-0.01,-0.02,-0.06,0.03,-0.14
0.083,0.01,-0.01,-0.02,-0.06,0.03,-0.14
0.084,0.01,-0.01,-0.02,-0.08,0.04,-0.08
0.089,0.01,-0.01,-0.02,-0.05,0.04,-0.07
0.091,0.01,-0.01,-0.02,-0.05,0.04,-0.07
0.093,0.00,-0.01,-0.02,-0.05,0.04,-0.07
0.094,0.00,-0.01,-0.02,-0.08,0.09,-0.07
0.098,0.00,-0.01,-0.03,-0.08,0.09,-0.07
0.099,0.00,-0.01,-0.03,-0.08,0.07,-0.04
0.106,-0.00,-0.01,-0.02,-0.08,0.07,-0.04
0.107,-0.00,-0.01,-0.02,-0.07,0.06,-0.02
0.108,-0.00,-0.01,-0.02,-0.05,0.09,-0.01
0.109,-0.00,-0.01,-0.02,-0.05,0.09,-0.01
0.113,-0.00,-0.02,-0.02,-0.05,0.09,-0.01
0.114,-0.00,-0.02,-0.02,-0.03,0.07,-0.03
0.118,-0.01,-0.02,-0.02,-0.03,0.07,-0.03
0.12,-0.01,-0.02,-0.02,-0.02,0.04,0.01
0.123,-0.01,-0.02,-0.02,-0.02,0.04,0.01
0.124,-0.01,-0.02,-0.02,0.00,0.05,0.02
0.128,-0.01,-0.02,-0.02,-0.01,0.02,0.05
0.129,-0.01,-0.03,-0.02,-0.01,0.02,0.05
0.134,-0.00,-0.03,-0.02,-0.01,0.02,0.05
0.134,-0.00,-0.03,-0.02,0.01,0.05,0.02
0.139,-0.01,-0.03,-0.02,0.01,0.05,0.02
0.14,-0.01,-0.03,-0.02,0.00,0.05,0.01
0.144,-0.01,-0.03,-0.02,0.02,0.02,0.01
0.144,-0.01,-0.03,-0.02,0.02,0.02,0.01
0.148,-0.01,-0.02,-0.02,0.02,0.02,0.01
0.149,-0.01,-0.02,-0.02,0.05,0.01,0.02
0.165,-0.01,-0.02,-0.02,0.04,-0.03,0.03
0.166,-0.01,-0.02,-0.02,0.04,-0.03,0.03
0.167,-0.01,-0.02,-0.02,0.04,-0.04,0.05
0.167,-0.01,-0.02,-0.01,0.04,-0.04,0.05
0.168,-0.01,-0.02,-0.01,0.04,-0.04,0.05
0.17,-0.01,-0.02,-0.01,0.07,-0.07,0.05
0.171,-0.01,-0.02,-0.01,0.05,-0.04,0.07
0.172,-0.01,-0.02,-0.01,0.05,-0.04,0.07
0.191,-0.01,-0.02,-0.01,0.05,-0.04,0.07
0.192,-0.01,-0.02,-0.01,0.04,-0.02,0.05
0.193,-0.01,-0.02,-0.01,0.02,-0.04,0.06
0.194,-0.01,-0.02,-0.01,0.02,-0.04,0.06
0.195,-0.01,-0.02,-0.01,0.02,-0.04,0.06
0.196,-0.01,-0.02,-0.01,-0.01,-0.01,0.02
0.197,-0.01,-0.02,-0.01,-0.02,-0.02,0.07
0.198,-0.00,-0.02,-0.01,-0.02,-0.02,0.07
0.199,-0.00,-0.02,-0.01,-0.02,-0.02,0.07
0.2,-0.00,-0.02,-0.01,-0.02,-0.03,0.05
0.2,-0.00,-0.02,-0.01,-0.02,-0.04,0.04
0.201,0.00,-0.01,-0.01,-0.02,-0.04,0.04
0.205,-0.00,-0.01,-0.01,-0.02,-0.04,0.04
0.206,-0.00,-0.01,-0.01,-0.00,-0.01,-0.01
0.212,-0.00,-0.01,-0.01,0.00,-0.06,0.01
0.213,-0.01,0.00,-0.01,0.00,-0.06,0.01
0.214,-0.01,0.00,-0.01,0.00,-0.06,0.01
0.215,-0.01,0.00,-0.01,0.01,-0.05,0.04
0.219,-0.01,0.00,-0.01,0.01,-0.07,0.10
0.22,-0.01,0.01,-0.01,0.01,-0.07,0.10
0.224,-0.01,0.01,-0.01,0.01,-0.07,0.10
0.226,-0.01,0.01,-0.01,-0.01,-0.09,0.10
0.248,-0.01,0.02,-0.01,-0.01,-0.09,0.10
0.249,-0.01,0.02,-0.01,-0.01,-0.07,0.13
0.25,-0.01,0.02,-0.01,-0.01,-0.07,0.13
0.251,-0.01,0.02,-0.01,0.01,-0.05,0.06
0.252,-0.00,0.02,-0.01,0.01,-0.05,0.06
0.253,-0.00,0.02,-0.01,0.01,-0.02,0.02
0.254,-0.01,0.02,-0.01,0.01,-0.02,0.02
0.255,-0.01,0.02,-0.01,-0.04,-0.02,-0.01
0.256,-0.01,0.02,-0.01,-0.04,-0.02,-0.01
0.258,-0.01,0.02,-0.01,-0.05,-0.02,0.00
0.259,-0.01,0.02,-0.01,-0.05,-0.02,0.00
0.26,-0.01,0.02,-0.01,-0.08,0.01,0.06
0.261,-0.01,0.02,-0.01,-0.05,0.03,0.09
0.262,-0.00,0.02,-0.01,-0.05,0.03,0.09
0.267,0.00,0.01,-0.01,-0.05,0.03,0.09
0.268,0.00,0.01,-0.01,-0.04,0.01,0.08
0.27,0.00,0.01,-0.01,-0.02,0.02,0.09
0.271,0.00,0.01,-0.01,-0.02,0.02,0.09
0.275,0.00,0.02,-0.01,-0.02,0.02,0.09
0.276,0.00,0.02,-0.01,-0.00,0.03,0.08
0.28,-0.00,0.02,-0.01,-0.00,0.03,0.08
0.281,-0.00,0.02,-0.01,0.05,0.03,0.08
0.285,-0.00,0.02,-0.01,0.05,0.02,0.10
0.286,-0.00,0.02,-0.01,0.05,0.02,0.10
0.29,-0.00,0.02,-0.01,0.03,0.06,0.15
0.29,-0.01,0.02,-0.02,0.03,0.06,0.15
0.295,-0.01,0.02,-0.02,0.08,0.05,0.11
0.296,-0.01,0.03,-0.02,0.08,0.05,0.11
0.3,-0.00,0.03,-0.02,0.08,0.05,0.11
0.301,-0.00,0.03,-0.02,0.09,0.04,0.07
0.315,-0.01,0.03,-0.02,0.09,0.04,0.07
0.315,-0.01,0.03,-0.02,0.07,0.05,0.04
0.316,-0.01,0.04,-0.02,0.07,0.05,0.04
0.316,-0.01,0.04,-0.02,0.11,0.05,0.06
0.317,-0.01,0.04,-0.02,0.03,0.06,0.08
0.317,-0.01,0.04,-0.03,0.03,0.06,0.08
0.32,-0.01,0.05,-0.03,0.03,0.06,0.08
0.321,-0.01,0.05,-0.03,-0.00,0.05,0.12
0.325,-0.01,0.06,-0.03,-0.00,0.05,0.12
0.326,-0.01,0.06,-0.03,0.03,0.01,0.08
0.33,-0.00,0.07,-0.03,0.03,0.01,0.08
0.331,-0.00,0.07,-0.03,0.01,0.03,0.08
0.336,-0.00,0.07,-0.03,0.03,0.03,0.05
0.336,-0.00,0.07,-0.03,0.03,0.03,0.05
0.341,-0.01,0.07,-0.04,0.03,0.03,0.05
0.341,-0.01,0.07,-0.04,0.03,0.01,0.03
0.345,-0.01,0.07,-0.04,-0.03,0.01,0.05
0.346,-0.01,0.07,-0.04,-0.03,0.01,0.05
0.351,-0.01,0.07,-0.04,0.01,-0.03,0.08
0.351,-0.01,0.08,-0.03,0.01,-0.03,0.08
0.356,-0.01,0.08,-0.03,0.01,-0.03,0.08
0.356,-0.01,0.08,-0.03,0.02,-0.00,0.06
0.361,-0.00,0.08,-0.04,0.02,-0.00,0.06
0.361,-0.00,0.08,-0.04,-0.02,0.04,0.04
0.366,-0.00,0.08,-0.04,-0.01,0.08,0.01
0.366,-0.00,0.08,-0.03,-0.01,0.08,0.01
0.371,-0.00,0.09,-0.03,-0.01,0.08,0.01
0.372,-0.00,0.09,-0.03,0.01,0.08,0.01
0.382,-0.01,0.10,-0.03,0.01,0.08,0.01
0.383,-0.01,0.10,-0.03,0.01,0.08,-0.01
0.384,-0.01,0.11,-0.03,0.01,0.08,-0.01
0.384,-0.01,0.11,-0.03,0.03,0.08,0.05
0.385,-0.01,0.11,-0.03,0.03,0.08,0.05
0.386,-0.01,0.11,-0.03,-0.02,0.09,0.10
0.39,-0.01,0.11,-0.03,0.01,0.08,0.06
0.392,-0.01,0.12,-0.03,0.01,0.08,0.06
0.395,-0.01,0.12,-0.03,0.05,0.04,0.02
0.396,-0.01,0.12,-0.03,0.05,0.04,0.02
0.401,-0.01,0.12,-0.03,0.08,0.03,0.03
0.401,-0.01,0.13,-0.03,0.08,0.03,0.03
0.406,-0.01,0.13,-0.03,0.07,-0.01,0.10
0.408,-0.01,0.13,-0.03,0.07,-0.01,0.10
0.411,-0.01,0.14,-0.03,0.07,-0.01,0.10
0.412,-0.01,0.14,-0.03,0.08,-0.03,0.14
0.416,-0.01,0.14,-0.03,0.04,-0.03,0.12
0.417,-0.01,0.14,-0.03,0.04,-0.03,0.12
0.422,-0.01,0.14,-0.03,0.04,-0.01,0.12
0.424,-0.01,0.15,-0.03,0.04,-0.01,0.12
0.426,-0.01,0.15,-0.03,0.04,-0.01,0.12
0.427,-0.01,0.15,-0.03,0.03,0.00,0.11
0.431,-0.01,0.15,-0.02,0.03,0.00,0.11
0.432,-0.01,0.15,-0.02,-0.04,-0.02,0.16
0.436,-0.01,0.15,-0.02,-0.07,-0.03,0.21
0.437,-0.01,0.15,-0.02,-0.07,-0.03,0.21
0.441,-0.01,0.15,-0.02,-0.06,-0.03,0.22
0.442,-0.01,0.14,-0.02,-0.06,-0.03,0.22
0.446,-0.01,0.13,-0.02,-0.06,-0.03,0.22
0.447,-0.01,0.13,-0.02,-0.05,-0.01,0.22
0.451,-0.01,0.13,-0.02,-0.06,-0.04,0.21
0.452,-0.00,0.12,-0.02,-0.06,-0.04,0.21
0.466,0.00,0.12,-0.01,-0.06,-0.04,0.21
0.467,0.00,0.12,-0.01,-0.06,-0.01,0.20
0.468,0.00,0.12,-0.01,-0.06,-0.01,0.20
0.468,0.00,0.12,-0.01,-0.07,0.00,0.12
0.469,-0.00,0.12,-0.01,-0.07,0.00,0.12
0.47,-0.00,0.12,-0.01,-0.04,0.00,0.12
0.474,-0.00,0.12,-0.01,-0.03,0.03,0.15
0.478,0.00,0.13,-0.02,-0.03,0.03,0.15
0.479,0.00,0.14,-0.02,-0.03,0.03,0.15
0.481,0.00,0.14,-0.02,0.05,0.00,0.16
0.498,-0.00,0.15,-0.02,0.05,0.00,0.16
0.498,-0.00,0.15,-0.02,0.01,-0.01,0.16
0.499,-0.00,0.15,-0.02,0.01,-0.01,0.16
0.5,-0.00,0.15,-0.02,-0.04,-0.00,0.19
0.501,0.00,0.16,-0.03,-0.04,-0.00,0.19
0.502,0.00,0.16,-0.03,-0.06,0.00,0.20
0.503,0.01,0.15,-0.03,-0.06,0.00,0.20
0.504,0.01,0.15,-0.03,-0.07,0.01,0.20
0.504,0.01,0.15,-0.02,-0.07,0.01,0.20
0.505,0.01,0.15,-0.02,-0.11,0.01,0.19
0.506,0.01,0.14,-0.02,-0.11,0.01,0.19
0.507,0.01,0.14,-0.02,-0.07,-0.01,0.16
0.515,0.01,0.13,-0.02,-0.07,-0.01,0.16
0.516,0.01,0.13,-0.02,-0.02,-0.03,0.18
0.517,0.01,0.13,-0.02,-0.04,0.02,0.16
0.517,0.01,0.11,-0.02,-0.04,0.02,0.16
0.523,0.01,0.11,-0.02,-0.05,0.01,0.14
0.524,0.01,0.10,-0.02,-0.05,0.01,0.14
0.527,0.01,0.09,-0.02,-0.05,0.01,0.14
0.527,0.01,0.09,-0.02,-0.00,-0.01,0.18
0.531,0.01,0.09,-0.02,0.04,0.05,0.19
0.532,0.01,0.08,-0.02,0.04,0.05,0.19
0.538,0.01,0.08,-0.02,0.01,0.05,0.18
0.54,0.01,0.07,-0.03,0.01,0.05,0.18
0.541,0.02,0.06,-0.03,0.01,0.05,0.18
0.542,0.02,0.06,-0.03,0.02,0.05,0.19
0.547,0.02,0.06,-0.03,0.07,0.09,0.16
0.547,0.02,0.05,-0.03,0.07,0.09,0.16
0.552,0.02,0.04,-0.04,0.07,0.09,0.16
0.553,0.02,0.04,-0.04,0.01,0.12,0.17
0.557,0.02,0.04,-0.04,-0.04,0.14,0.16
0.558,0.02,0.04,-0.04,-0.04,0.14,0.16
0.562,0.02,0.04,-0.04,-0.08,0.14,0.15
0.562,0.02,0.03,-0.05,-0.08,0.14,0.15
0.567,0.02,0.02,-0.05,-0.08,0.14,0.15
0.568,0.02,0.02,-0.05,-0.07,0.11,0.11
0.573,0.02,0.02,-0.05,-0.06,0.09,0.10
0.574,0.02,0.02,-0.06,-0.06,0.09,0.10
0.577,0.02,0.01,-0.06,-0.06,0.09,0.10
0.578,0.02,0.01,-0.06,-0.08,0.07,0.08
0.582,0.03,-0.01,-0.06,-0.08,0.07,0.08
0.583,0.03,-0.01,-0.06,-0.15,0.04,0.15
0.598,0.03,-0.05,-0.06,-0.15,0.04,0.15
0.599,0.03,-0.05,-0.06,-0.03,0.12,0.13
0.6,0.02,-0.07,-0.08,-0.03,0.12,0.13
0.601,0.02,-0.07,-0.08,0.12,0.15,0.14
0.601,0.03,-0.08,-0.09,0.12,0.15,0.14
0.602,0.03,-0.08,-0.09,0.13,0.15,0.17
0.603,0.03,-0.08,-0.09,0.13,0.15,0.17
0.604,0.03,-0.08,-0.09,0.09,0.21,0.20
0.608,0.03,-0.08,-0.10,0.09,0.21,0.20
0.61,0.03,-0.08,-0.10,0.06,0.15,0.22
0.613,0.03,-0.08,-0.10,0.05,0.13,0.20
0.614,0.03,-0.08,-0.10,0.05,0.13,0.20
0.617,0.03,-0.08,-0.11,0.05,0.13,0.20
0.618,0.03,-0.08,-0.11,0.04,0.06,0.25
0.623,0.03,-0.09,-0.12,0.04,0.06,0.25
0.624,0.03,-0.09,-0.12,0.02,0.04,0.23
0.628,0.03,-0.10,-0.13,0.02,0.04,0.23
0.629,0.03,-0.10,-0.13,0.01,0.08,0.28
0.632,0.04,-0.12,-0.13,0.01,0.08,0.28
0.633,0.04,-0.12,-0.13,-0.00,0.11,0.30
0.639,0.04,-0.12,-0.13,0.02,0.11,0.21
0.641,0.04,-0.13,-0.13,0.02,0.11,0.21
0.642,0.03,-0.14,-0.14,0.02,0.11,0.21
0.643,0.03,-0.14,-0.14,0.09,0.07,0.15
0.647,0.02,-0.15,-0.15,0.09,0.07,0.15
0.648,0.02,-0.15,-0.15,0.13,0.10,0.18
0.652,0.02,-0.15,-0.15,-0.10,0.19,0.24
0.653,0.02,-0.14,-0.15,-0.10,0.19,0.24
0.657,0.03,-0.12,-0.14,-0.10,0.19,0.24
0.659,0.03,-0.12,-0.14,-0.12,0.19,0.17
0.662,0.03,-0.12,-0.14,-0.12,0.24,0.02
0.663,0.04,-0.10,-0.13,-0.12,0.24,0.02
0.667,0.04,-0.10,-0.13,-0.06,0.26,-0.04
0.668,0.04,-0.07,-0.12,-0.06,0.26,-0.04
0.672,0.03,-0.05,-0.11,-0.06,0.26,-0.04
0.674,0.03,-0.05,-0.11,0.01,0.27,-0.08
0.677,0.02,-0.04,-0.11,0.01,0.27,-0.08
0.678,0.02,-0.04,-0.11,0.02,0.20,-0.09
0.683,0.02,-0.04,-0.11,0.05,0.16,-0.00
0.683,0.01,-0.02,-0.11,0.05,0.16,-0.00
0.689,0.00,-0.02,-0.11,0.05,0.16,-0.00
0.69,0.00,-0.02,-0.11,0.10,0.16,0.15
0.693,0.00,-0.02,-0.11,0.08,0.18,0.20
0.694,0.01,-0.02,-0.12,0.08,0.18,0.20
0.698,0.01,-0.03,-0.13,0.08,0.18,0.20
0.698,0.01,-0.03,-0.13,-0.01,0.19,0.29
0.703,0.01,-0.05,-0.13,-0.01,0.19,0.29
0.704,0.01,-0.05,-0.13,-0.13,0.19,0.42
0.708,0.01,-0.05,-0.13,-0.39,0.19,0.34
0.709,0.03,-0.08,-0.13,-0.39,0.19,0.34
0.713,0.03,-0.08,-0.13,-0.43,0.27,0.18
0.714,0.04,-0.10,-0.13,-0.43,0.27,0.18
0.718,0.04,-0.13,-0.13,-0.43,0.27,0.18
0.719,0.04,-0.13,-0.13,-0.47,0.20,0.19
0.732,0.04,-0.16,-0.12,-0.47,0.20,0.19
0.733,0.04,-0.16,-0.12,-0.55,0.14,0.19
0.734,0.04,-0.17,-0.11,-0.55,0.14,0.19
0.735,0.04,-0.17,-0.11,-0.46,0.14,0.18
0.748,0.04,-0.17,-0.09,-0.46,0.14,0.18
0.749,0.04,-0.17,-0.09,-0.40,0.11,0.17
0.751,0.04,-0.17,-0.09,-0.29,0.11,0.24
0.752,0.04,-0.17,-0.08,-0.29,0.11,0.24
0.755,0.05,-0.15,-0.07,-0.29,0.11,0.24
0.756,0.06,-0.14,-0.06,-0.29,0.11,0.24
0.758,0.06,-0.14,-0.06,-0.10,0.14,0.27
0.759,0.06,-0.14,-0.06,-0.03,0.14,0.24
0.76,0.06,-0.14,-0.06,-0.02,0.16,0.02
0.761,0.05,-0.12,-0.06,-0.02,0.16,0.02
0.762,0.05,-0.12,-0.06,0.01,0.16,0.01
0.763,0.03,-0.09,-0.06,0.01,0.16,0.01
0.764,0.03,-0.09,-0.05,0.01,0.16,0.01
0.765,0.03,-0.09,-0.05,0.02,0.21,0.36
0.774,0.03,-0.09,-0.05,0.04,0.19,0.43
0.776,0.04,-0.09,-0.04,0.04,0.19,0.43
0.776,0.04,-0.09,-0.04,0.01,0.16,0.34
0.777,0.06,-0.08,-0.04,0.01,0.16,0.34
0.778,0.06,-0.08,-0.04,-0.08,0.22,0.26
0.779,0.07,-0.08,-0.04,-0.08,0.22,0.26
0.783,0.08,-0.07,-0.03,-0.08,0.22,0.26
0.784,0.08,-0.07,-0.03,-0.15,0.28,0.18
0.789,0.08,-0.07,-0.03,-0.17,0.27,0.05
0.79,0.08,-0.06,-0.02,-0.17,0.27,0.05
0.793,0.08,-0.06,-0.02,-0.14,0.26,0.06
0.794,0.08,-0.04,-0.01,-0.14,0.26,0.06
0.798,0.08,-0.04,-0.01,-0.11,0.26,0.03
0.799,0.07,-0.03,0.00,-0.11,0.26,0.03
0.805,0.07,-0.03,0.00,-0.11,0.28,0.14
0.807,0.07,-0.02,0.01,-0.11,0.28,0.14
0.808,0.07,-0.02,0.01,-0.11,0.28,0.14
0.809,0.07,-0.02,0.01,-0.12,0.25,0.24
0.813,0.07,-0.02,0.01,-0.03,0.21,0.20
0.814,0.07,-0.03,0.02,-0.03,0.21,0.20
0.818,0.07,-0.03,0.02,-0.05,0.26,0.30
0.819,0.07,-0.04,0.02,-0.05,0.26,0.30
0.823,0.08,-0.05,0.02,-0.05,0.26,0.30
0.825,0.08,-0.05,0.02,-0.14,0.31,0.23
0.828,0.08,-0.05,0.02,-0.15,0.32,0.12
0.829,0.08,-0.05,0.03,-0.15,0.32,0.12
0.833,0.08,-0.05,0.03,-0.07,0.34,0.02
0.834,0.08,-0.05,0.03,-0.07,0.34,0.02
0.838,0.08,-0.05,0.03,-0.05,0.34,-0.03
0.84,0.08,-0.04,0.04,-0.05,0.34,-0.03
0.844,0.08,-0.04,0.03,-0.05,0.34,-0.03
0.844,0.08,-0.04,0.03,-0.03,0.33,-0.01
0.849,0.07,-0.03,0.03,-0.03,0.33,-0.01
0.849,0.07,-0.03,0.03,0.01,0.37,-0.01
0.862,0.07,-0.03,0.03,-0.06,0.40,-0.02
0.863,0.07,-0.02,0.03,-0.06,0.40,-0.02
0.864,0.08,-0.01,0.03,-0.06,0.40,-0.02
0.867,0.08,-0.01,0.03,-0.08,0.39,-0.03
0.868,0.08,-0.01,0.03,-0.08,0.39,-0.03
0.869,0.08,-0.01,0.03,-0.08,0.39,-0.01
0.87,0.08,-0.01,0.03,-0.08,0.39,-0.01
0.872,0.08,-0.01,0.03,-0.08,0.41,-0.03
0.878,0.08,-0.01,0.03,-0.04,0.38,-0.04
0.879,0.08,-0.01,0.04,-0.04,0.38,-0.04
0.88,0.07,0.00,0.03,-0.04,0.38,-0.04
0.881,0.07,0.00,0.03,-0.02,0.41,-0.08
0.884,0.07,0.00,0.03,-0.02,0.41,-0.08
0.885,0.07,0.00,0.03,0.00,0.40,-0.06
0.89,0.07,0.00,0.03,-0.02,0.40,-0.04
0.892,0.07,-0.00,0.03,-0.02,0.40,-0.04
0.895,0.07,-0.00,0.03,-0.06,0.41,-0.02
0.896,0.07,-0.01,0.03,-0.06,0.41,-0.02
0.899,0.07,-0.01,0.02,-0.06,0.41,-0.02
0.9,0.07,-0.01,0.02,-0.08,0.41,-0.07
0.905,0.07,-0.01,0.02,-0.08,0.41,-0.07
0.907,0.07,-0.01,0.02,-0.14,0.41,-0.13
0.909,0.07,-0.01,0.02,-0.14,0.41,-0.13
0.91,0.07,-0.01,0.02,-0.20,0.48,-0.18
0.915,0.07,-0.01,0.02,-0.21,0.50,-0.24
0.915,0.07,-0.01,0.03,-0.21,0.50,-0.24
0.919,0.06,-0.01,0.03,-0.21,0.50,-0.24
0.92,0.06,-0.01,0.03,-0.21,0.48,-0.21
0.924,0.06,-0.01,0.03,-0.21,0.49,-0.19
0.926,0.06,-0.02,0.04,-0.21,0.49,-0.19
0.929,0.06,-0.02,0.04,-0.19,0.45,-0.08
0.93,0.06,-0.03,0.04,-0.19,0.45,-0.08
0.934,0.06,-0.03,0.04,-0.06,0.38,-0.05
0.935,0.06,-0.04,0.05,-0.06,0.38,-0.05
0.94,0.06,-0.04,0.05,-0.07,0.36,-0.10
0.942,0.07,-0.04,0.05,-0.07,0.36,-0.10
0.944,0.07,-0.05,0.05,-0.07,0.36,-0.10
0.945,0.07,-0.05,0.05,-0.04,0.36,-0.09
0.95,0.07,-0.05,0.05,-0.04,0.36,-0.09
0.95,0.07,-0.05,0.05,0.04,0.32,-0.05
0.956,0.07,-0.04,0.05,0.04,0.32,-0.05
0.958,0.07,-0.04,0.05,-0.05,0.31,-0.00
0.959,0.07,-0.05,0.05,-0.05,0.31,-0.00
0.96,0.07,-0.05,0.05,-0.07,0.32,0.04
0.965,0.08,-0.05,0.06,-0.07,0.32,0.04
0.966,0.08,-0.05,0.06,-0.05,0.33,0.06
0.972,0.08,-0.05,0.06,-0.10,0.39,-0.02
0.974,0.08,-0.05,0.06,-0.10,0.39,-0.02
0.975,0.08,-0.05,0.06,-0.11,0.37,-0.17
0.976,0.08,-0.06,0.06,-0.11,0.37,-0.17
0.98,0.08,-0.05,0.06,-0.11,0.37,-0.17
0.981,0.08,-0.05,0.06,-0.06,0.39,-0.16
0.99,0.09,-0.04,0.06,-0.06,0.39,-0.16
0.991,0.09,-0.04,0.06,-0.06,0.39,-0.06
0.994,0.09,-0.02,0.06,-0.06,0.39,-0.06
0.995,0.09,-0.02,0.06,-0.06,0.35,0.03
0.996,0.09,-0.02,0.06,-0.10,0.36,0.04
0.997,0.10,-0.00,0.06,-0.10,0.36,0.04
1.0,0.10,-0.00,0.06,-0.07,0.40,0.07
1.002,0.10,0.01,0.07,-0.07,0.40,0.07
1.005,0.10,0.01,0.06,-0.07,0.40,0.07
1.006,0.10,0.01,0.06,-0.06,0.38,0.09
1.01,0.10,0.01,0.06,-0.06,0.38,0.09
1.011,0.10,0.01,0.06,-0.08,0.36,0.18
1.015,0.10,0.00,0.05,-0.08,0.36,0.18
1.016,0.10,0.00,0.05,-0.12,0.35,0.25
1.03,0.11,-0.02,0.05,-0.12,0.35,0.25
1.031,0.11,-0.02,0.05,-0.11,0.34,0.23
1.032,0.11,-0.03,0.05,-0.11,0.34,0.23
1.033,0.11,-0.03,0.05,-0.09,0.33,0.19
1.034,0.11,-0.03,0.05,-0.09,0.33,0.19
1.035,0.11,-0.03,0.05,-0.03,0.31,0.07
1.036,0.11,-0.03,0.05,-0.03,0.31,0.07
1.037,0.11,-0.03,0.05,-0.01,0.32,0.09
1.044,0.11,-0.03,0.05,-0.14,0.30,0.20
1.045,0.11,-0.04,0.04,-0.14,0.30,0.20
1.046,0.11,-0.04,0.04,-0.14,0.30,0.20
1.047,0.11,-0.04,0.04,-0.21,0.26,0.25
1.05,0.11,-0.04,0.04,-0.18,0.29,0.26
1.051,0.11,-0.05,0.04,-0.18,0.29,0.26
1.056,0.11,-0.05,0.04,-0.21,0.32,0.23
1.058,0.12,-0.06,0.04,-0.21,0.32,0.23
1.06,0.12,-0.06,0.04,-0.31,0.29,0.15
1.061,0.11,-0.06,0.04,-0.31,0.29,0.15
1.065,0.11,-0.06,0.04,-0.28,0.29,0.18
1.066,0.11,-0.07,0.04,-0.28,0.29,0.18
1.071,0.11,-0.08,0.04,-0.28,0.29,0.18
1.073,0.11,-0.08,0.04,-0.25,0.31,0.25
1.075,0.11,-0.10,0.05,-0.25,0.31,0.25
1.076,0.11,-0.10,0.05,-0.44,0.49,0.21
1.08,0.11,-0.13,0.06,-0.44,0.49,0.21
1.081,0.11,-0.13,0.06,-0.46,0.56,0.12
1.085,0.09,-0.17,0.07,-0.46,0.56,0.12
1.087,0.09,-0.17,0.07,-0.37,0.49,0.10
1.09,0.08,-0.20,0.08,-0.37,0.49,0.10
1.092,0.08,-0.20,0.08,-0.15,0.42,0.09
1.095,0.08,-0.20,0.08,-0.09,0.45,0.18
1.096,0.08,-0.24,0.07,-0.09,0.45,0.18
1.1,0.07,-0.28,0.06,-0.09,0.45,0.18
1.101,0.07,-0.28,0.06,-0.07,0.39,0.28
1.106,0.07,-0.32,0.06,-0.07,0.39,0.28
1.108,0.07,-0.32,0.06,-0.08,0.43,0.26
1.11,0.07,-0.35,0.05,-0.08,0.43,0.26
1.111,0.07,-0.35,0.05,-0.06,0.39,0.24
1.116,0.07,-0.35,0.05,-0.09,0.29,0.27
1.117,0.07,-0.37,0.05,-0.09,0.29,0.27
1.121,0.08,-0.38,0.05,-0.09,0.29,0.27
1.123,0.08,-0.38,0.05,-0.05,0.27,0.24
1.126,0.08,-0.39,0.04,-0.05,0.27,0.24
1.127,0.08,-0.39,0.04,-0.04,0.23,0.21
1.131,0.09,-0.38,0.04,-0.04,0.23,0.21
1.132,0.09,-0.38,0.04,-0.08,0.21,0.23
1.136,0.09,-0.38,0.04,-0.13,0.19,0.23
1.137,0.10,-0.37,0.04,-0.13,0.19,0.23
1.141,0.11,-0.36,0.04,-0.13,0.19,0.23
1.143,0.11,-0.36,0.04,-0.13,0.14,0.21
1.146,0.12,-0.35,0.05,-0.13,0.14,0.21
1.147,0.12,-0.35,0.05,-0.16,0.17,0.25
1.151,0.12,-0.35,0.05,-0.16,0.17,0.25
1.152,0.12,-0.35,0.05,-0.14,0.12,0.32
1.162,0.12,-0.35,0.05,-0.16,0.08,0.35
1.163,0.13,-0.36,0.06,-0.16,0.08,0.35
1.166,0.14,-0.37,0.06,-0.16,0.08,0.35
1.167,0.14,-0.37,0.06,-0.15,-0.00,0.38
1.168,0.15,-0.38,0.07,-0.15,-0.00,0.38
1.169,0.15,-0.38,0.07,-0.18,-0.02,0.40
1.177,0.16,-0.38,0.09,-0.18,-0.02,0.40
1.178,0.16,-0.38,0.09,-0.23,-0.03,0.35
1.179,0.16,-0.38,0.09,-0.18,-0.09,0.27
1.18,0.17,-0.37,0.11,-0.18,-0.09,0.27
1.181,0.18,-0.35,0.12,-0.18,-0.09,0.27
1.182,0.18,-0.35,0.12,-0.13,-0.10,0.23
1.189,0.19,-0.33,0.14,-0.13,-0.10,0.23
1.191,0.19,-0.33,0.14,-0.09,-0.10,0.11
1.192,0.21,-0.29,0.15,-0.09,-0.10,0.11
1.193,0.21,-0.29,0.15,-0.07,-0.11,0.01
1.196,0.21,-0.29,0.15,-0.04,-0.16,0.04
1.197,0.21,-0.25,0.16,-0.04,-0.16,0.04
1.201,0.23,-0.20,0.17,-0.04,-0.16,0.04
1.202,0.23,-0.20,0.17,-0.02,-0.17,0.06
1.207,0.24,-0.16,0.18,-0.02,-0.17,0.06
1.209,0.24,-0.16,0.18,-0.01,-0.18,0.10
1.211,0.25,-0.13,0.19,-0.01,-0.18,0.10
1.212,0.25,-0.13,0.19,-0.01,-0.22,0.13
1.216,0.25,-0.13,0.19,0.03,-0.28,0.26
1.217,0.26,-0.11,0.20,0.03,-0.28,0.26
1.222,0.27,-0.10,0.20,0.03,-0.28,0.26
1.224,0.27,-0.10,0.20,0.06,-0.31,0.41
1.227,0.29,-0.11,0.20,0.06,-0.31,0.41
1.228,0.29,-0.11,0.20,0.03,-0.34,0.42
1.231,0.30,-0.11,0.20,0.03,-0.34,0.42
1.232,0.30,-0.11,0.20,-0.00,-0.32,0.40
1.242,0.30,-0.11,0.20,-0.01,-0.33,0.41
1.243,0.30,-0.11,0.21,-0.01,-0.33,0.41
1.244,0.31,-0.11,0.21,-0.01,-0.33,0.41
1.246,0.31,-0.11,0.21,-0.04,-0.33,0.37
1.247,0.32,-0.10,0.21,-0.04,-0.33,0.37
1.248,0.32,-0.10,0.21,-0.11,-0.35,0.36
1.252,0.33,-0.09,0.21,-0.11,-0.35,0.36
1.254,0.33,-0.09,0.21,-0.14,-0.39,0.36
1.257,0.33,-0.09,0.21,-0.17,-0.44,0.33
1.259,0.34,-0.09,0.22,-0.17,-0.44,0.33
1.261,0.34,-0.09,0.22,-0.20,-0.45,0.33
1.262,0.35,-0.09,0.22,-0.20,-0.45,0.33
1.267,0.35,-0.09,0.22,-0.20,-0.45,0.33
1.268,0.35,-0.09,0.22,-0.23,-0.56,0.32
1.278,0.35,-0.09,0.22,-0.25,-0.65,0.28
1.28,0.36,-0.10,0.23,-0.25,-0.65,0.28
1.281,0.36,-0.10,0.23,-0.24,-0.74,0.31
1.284,0.37,-0.11,0.23,-0.24,-0.74,0.31
1.285,0.38,-0.13,0.24,-0.24,-0.74,0.31
1.286,0.38,-0.13,0.24,-0.22,-0.80,0.32
1.296,0.40,-0.15,0.24,-0.22,-0.80,0.32
1.298,0.40,-0.15,0.24,-0.12,-0.86,0.31
1.299,0.41,-0.18,0.24,-0.12,-0.86,0.31
1.299,0.41,-0.18,0.24,-0.05,-0.97,0.28
1.3,0.41,-0.18,0.24,0.05,-1.01,0.26
1.301,0.42,-0.20,0.25,0.05,-1.01,0.26
1.303,0.43,-0.21,0.25,0.05,-1.01,0.26
1.304,0.43,-0.21,0.25,0.12,-1.03,0.24
1.307,0.43,-0.21,0.25,0.17,-1.06,0.19
1.308,0.45,-0.22,0.25,0.17,-1.06,0.19
1.312,0.45,-0.22,0.25,0.21,-1.04,0.15
1.313,0.46,-0.22,0.25,0.21,-1.04,0.15
1.317,0.46,-0.22,0.25,0.25,-1.06,0.08
1.318,0.47,-0.22,0.25,0.25,-1.06,0.08
1.322,0.47,-0.22,0.25,0.29,-1.05,0.03
1.324,0.48,-0.21,0.26,0.29,-1.05,0.03
1.327,0.48,-0.21,0.26,0.23,-1.05,-0.01
1.328,0.49,-0.20,0.27,0.23,-1.05,-0.01
1.332,0.50,-0.19,0.28,0.23,-1.05,-0.01
1.333,0.50,-0.19,0.28,0.22,-1.05,-0.00
1.339,0.50,-0.17,0.30,0.22,-1.05,-0.00
1.341,0.50,-0.17,0.30,0.23,-1.05,0.03
1.342,0.51,-0.16,0.31,0.23,-1.05,0.03
1.343,0.51,-0.16,0.31,0.34,-1.04,0.03
1.348,0.51,-0.16,0.32,0.34,-1.04,0.03
1.349,0.51,-0.16,0.32,0.37,-1.01,0.07
1.352,0.51,-0.14,0.33,0.37,-1.01,0.07
1.353,0.51,-0.14,0.33,0.38,-0.99,0.12
1.358,0.51,-0.14,0.33,0.34,-0.96,0.20
1.36,0.51,-0.12,0.34,0.34,-0.96,0.20
1.362,0.52,-0.09,0.34,0.34,-0.96,0.20
1.363,0.52,-0.09,0.34,0.35,-0.89,0.24
1.368,0.52,-0.08,0.35,0.35,-0.89,0.24
1.369,0.52,-0.08,0.35,0.47,-0.72,0.24
1.374,0.51,-0.05,0.35,0.47,-0.72,0.24
1.375,0.51,-0.05,0.35,0.53,-0.64,0.20
1.378,0.51,-0.05,0.35,0.63,-0.53,0.15
1.379,0.49,-0.02,0.35,0.63,-0.53,0.15
1.382,0.46,0.03,0.35,0.63,-0.53,0.15
1.383,0.46,0.03,0.35,0.71,-0.43,0.16
1.395,0.46,0.03,0.35,0.76,-0.28,0.19
1.397,0.43,0.06,0.33,0.76,-0.28,0.19
1.399,0.40,0.09,0.31,0.76,-0.28,0.19
1.4,0.40,0.09,0.31,0.69,-0.05,0.22
1.405,0.36,0.12,0.29,0.69,-0.05,0.22
1.407,0.36,0.12,0.29,0.55,0.12,0.23
1.409,0.32,0.14,0.26,0.55,0.12,0.23
1.41,0.32,0.14,0.26,0.41,0.28,0.31
1.411,0.29,0.14,0.24,0.41,0.28,0.31
1.412,0.29,0.14,0.24,0.29,0.45,0.40
1.413,0.25,0.14,0.22,0.29,0.45,0.40
1.413,0.25,0.14,0.22,0.18,0.64,0.45
1.418,0.25,0.14,0.22,0.09,0.74,0.51
1.42,0.21,0.12,0.21,0.09,0.74,0.51
1.423,0.17,0.11,0.19,0.09,0.74,0.51
1.425,0.17,0.11,0.19,-0.07,0.86,0.48
1.429,0.17,0.11,0.19,-0.24,0.98,0.37
1.429,0.12,0.08,0.19,-0.24,0.98,0.37
1.433,0.12,0.08,0.19,-0.31,1.03,0.29
1.434,0.06,0.06,0.19,-0.31,1.03,0.29
1.439,0.00,0.04,0.19,-0.31,1.03,0.29
1.441,0.00,0.04,0.19,-0.46,1.04,0.13
1.443,-0.06,0.02,0.19,-0.46,1.04,0.13
1.444,-0.06,0.02,0.19,-0.55,1.00,0.09
1.448,-0.11,-0.01,0.19,-0.55,1.00,0.09
1.449,-0.11,-0.01,0.19,-0.47,1.02,0.12
1.455,-0.11,-0.01,0.19,-0.41,0.96,0.13
1.457,-0.16,-0.03,0.18,-0.41,0.96,0.13
1.458,-0.20,-0.05,0.17,-0.41,0.96,0.13
1.459,-0.20,-0.05,0.17,-0.39,0.89,0.07
1.463,-0.24,-0.06,0.16,-0.39,0.89,0.07
1.464,-0.24,-0.06,0.16,-0.41,0.81,0.11
1.468,-0.27,-0.06,0.14,-0.41,0.81,0.11
1.469,-0.27,-0.06,0.14,-0.51,0.71,0.09
1.473,-0.29,-0.07,0.12,-0.51,0.71,0.09
1.475,-0.29,-0.07,0.12,-0.60,0.61,0.06
1.478,-0.32,-0.09,0.12,-0.60,0.61,0.06
1.479,-0.32,-0.09,0.12,-0.69,0.46,0.02
1.483,-0.34,-0.12,0.12,-0.69,0.46,0.02
1.484,-0.34,-0.12,0.12,-0.75,0.26,-0.01
1.494,-0.34,-0.12,0.12,-0.75,0.05,-0.11
1.495,-0.37,-0.15,0.12,-0.75,0.05,-0.11
1.495,-0.37,-0.15,0.12,-0.68,-0.18,-0.14
1.496,-0.39,-0.18,0.12,-0.68,-0.18,-0.14
1.499,-0.39,-0.18,0.12,-0.55,-0.40,-0.11
1.5,-0.40,-0.20,0.12,-0.55,-0.40,-0.11
1.506,-0.41,-0.21,0.11,-0.55,-0.40,-0.11
1.508,-0.41,-0.21,0.11,-0.49,-0.58,-0.11
1.509,-0.41,-0.21,0.11,-0.44,-0.73,-0.01
1.51,-0.42,-0.21,0.10,-0.44,-0.73,-0.01
1.513,-0.42,-0.21,0.10,-0.41,-0.87,0.10
1.514,-0.42,-0.21,0.09,-0.41,-0.87,0.10
1.518,-0.42,-0.21,0.09,-0.37,-0.91,0.19
1.519,-0.42,-0.22,0.09,-0.37,-0.91,0.19
1.524,-0.42,-0.22,0.08,-0.37,-0.91,0.19
1.525,-0.42,-0.22,0.08,-0.23,-0.82,0.23
1.529,-0.41,-0.22,0.08,-0.23,-0.82,0.23
1.53,-0.41,-0.22,0.08,-0.12,-0.78,0.24
1.534,-0.41,-0.22,0.07,-0.12,-0.78,0.24
1.535,-0.41,-0.22,0.07,-0.08,-0.70,0.27
1.544,-0.41,-0.22,0.07,-0.06,-0.61,0.27
1.545,-0.41,-0.21,0.06,-0.06,-0.61,0.27
1.546,-0.42,-0.20,0.06,-0.06,-0.61,0.27
1.548,-0.42,-0.20,0.06,-0.01,-0.52,0.33
1.552,-0.42,-0.20,0.06,0.05,-0.47,0.41
1.553,-0.42,-0.20,0.05,0.05,-0.47,0.41
1.563,-0.41,-0.20,0.05,0.05,-0.47,0.41
1.565,-0.41,-0.20,0.05,0.08,-0.39,0.41
1.566,-0.42,-0.19,0.04,0.08,-0.39,0.41
1.567,-0.42,-0.19,0.04,0.02,-0.25,0.34
1.568,-0.42,-0.19,0.04,0.02,-0.25,0.34
1.569,-0.42,-0.19,0.04,0.02,-0.23,0.28
1.569,-0.42,-0.18,0.03,0.02,-0.23,0.28
1.57,-0.42,-0.18,0.03,0.02,-0.19,0.22
1.574,-0.43,-0.18,0.03,0.02,-0.19,0.22
1.575,-0.43,-0.18,0.03,0.02,-0.14,0.19
1.579,-0.43,-0.18,0.03,-0.02,-0.16,0.14
1.58,-0.43,-0.18,0.02,-0.02,-0.16,0.14
1.584,-0.44,-0.18,0.02,-0.02,-0.16,0.14
1.585,-0.44,-0.18,0.02,-0.02,-0.21,0.10
1.589,-0.44,-0.18,0.01,-0.02,-0.21,0.10
1.591,-0.44,-0.18,0.01,-0.09,-0.25,0.03
1.594,-0.45,-0.18,-0.00,-0.09,-0.25,0.03
1.595,-0.45,-0.18,-0.00,-0.07,-0.28,0.05
1.599,-0.45,-0.18,-0.00,-0.11,-0.34,0.05
1.6,-0.46,-0.19,-0.01,-0.11,-0.34,0.05
1.605,-0.46,-0.18,-0.02,-0.11,-0.34,0.05
1.607,-0.46,-0.18,-0.02,-0.07,-0.38,0.12
1.609,-0.46,-0.19,-0.03,-0.07,-0.38,0.12
1.61,-0.46,-0.19,-0.03,-0.02,-0.46,0.19
1.614,-0.47,-0.19,-0.04,-0.02,-0.46,0.19
1.615,-0.47,-0.19,-0.04,-0.02,-0.52,0.29
1.619,-0.47,-0.19,-0.04,0.04,-0.59,0.36
1.62,-0.47,-0.19,-0.05,0.04,-0.59,0.36
1.624,-0.47,-0.20,-0.06,0.04,-0.59,0.36
1.626,-0.47,-0.20,-0.06,0.03,-0.66,0.42
1.629,-0.47,-0.20,-0.07,0.03,-0.66,0.42
1.63,-0.47,-0.20,-0.07,0.06,-0.73,0.50
1.634,-0.47,-0.20,-0.08,0.06,-0.73,0.50
1.635,-0.47,-0.20,-0.08,0.11,-0.78,0.56
1.641,-0.47,-0.20,-0.08,0.10,-0.81,0.64
1.643,-0.47,-0.21,-0.09,0.10,-0.81,0.64
1.644,-0.47,-0.21,-0.09,0.12,-0.82,0.67
1.645,-0.46,-0.22,-0.09,0.12,-0.82,0.67
1.65,-0.46,-0.22,-0.09,0.11,-0.86,0.74
1.651,-0.45,-0.22,-0.10,0.11,-0.86,0.74
1.656,-0.45,-0.22,-0.10,0.10,-0.89,0.78
1.658,-0.44,-0.22,-0.11,0.10,-0.89,0.78
1.66,-0.44,-0.22,-0.11,0.15,-0.91,0.94
1.661,-0.43,-0.21,-0.11,0.15,-0.91,0.94
1.665,-0.43,-0.21,-0.11,0.20,-0.95,1.04
1.666,-0.41,-0.20,-0.11,0.20,-0.95,1.04
1.67,-0.41,-0.20,-0.11,0.23,-0.96,1.05
1.671,-0.40,-0.21,-0.12,0.23,-0.96,1.05
1.675,-0.40,-0.21,-0.12,0.23,-0.94,1.02
1.677,-0.38,-0.22,-0.12,0.23,-0.94,1.02
1.68,-0.38,-0.22,-0.12,0.22,-0.93,1.01
1.681,-0.37,-0.23,-0.12,0.22,-0.93,1.01
1.685,-0.37,-0.23,-0.12,0.27,-0.94,1.09
1.686,-0.35,-0.23,-0.12,0.27,-0.94,1.09
1.695,-0.35,-0.23,-0.12,0.27,-0.95,1.10
1.697,-0.33,-0.22,-0.12,0.27,-0.95,1.10
1.698,-0.33,-0.22,-0.12,0.27,-0.96,1.22
1.699,-0.32,-0.20,-0.12,0.27,-0.96,1.22
1.704,-0.32,-0.20,-0.12,0.28,-0.98,1.34
1.706,-0.31,-0.18,-0.11,0.28,-0.98,1.34
1.713,-0.31,-0.17,-0.10,0.28,-0.98,1.34
1.715,-0.31,-0.17,-0.10,0.23,-1.06,1.42
1.716,-0.31,-0.17,-0.10,0.12,-1.23,1.46
1.717,-0.30,-0.16,-0.10,0.12,-1.23,1.46
1.717,-0.30,-0.16,-0.10,0.12,-1.23,1.46
1.718,-0.30,-0.16,-0.10,0.33,-1.08,1.55
1.722,-0.29,-0.20,-0.10,0.33,-1.08,1.55
1.723,-0.29,-0.20,-0.10,0.50,-0.90,1.59
1.726,-0.30,-0.22,-0.11,0.50,-0.90,1.59
1.727,-0.30,-0.22,-0.11,0.60,-0.94,1.47
1.73,-0.30,-0.22,-0.11,0.74,-0.83,1.47
1.731,-0.31,-0.21,-0.11,0.74,-0.83,1.47
1.735,-0.31,-0.21,-0.11,0.74,-0.69,1.39
1.736,-0.32,-0.21,-0.12,0.74,-0.69,1.39
1.758,-0.32,-0.21,-0.12,0.74,-0.51,1.33
1.759,-0.34,-0.17,-0.13,0.74,-0.51,1.33
1.76,-0.37,-0.11,-0.15,0.74,-0.51,1.33
1.761,-0.37,-0.11,-0.15,0.71,-0.27,1.38
1.761,-0.40,-0.06,-0.18,0.71,-0.27,1.38
1.762,-0.40,-0.06,-0.18,0.61,-0.02,1.48
1.763,-0.43,-0.01,-0.21,0.61,-0.02,1.48
1.764,-0.43,-0.01,-0.21,0.47,0.18,1.60
1.765,-0.45,0.04,-0.24,0.47,0.18,1.60
1.766,-0.45,0.04,-0.24,0.28,0.22,1.72
1.766,-0.48,0.06,-0.27,0.28,0.22,1.72
1.767,-0.48,0.06,-0.27,0.09,0.19,1.78
1.771,-0.48,0.06,-0.27,-0.09,0.16,1.92
1.772,-0.51,0.05,-0.30,-0.09,0.16,1.92
1.776,-0.51,0.05,-0.30,-0.25,0.17,1.92
1.777,-0.53,0.04,-0.34,-0.25,0.17,1.92
1.781,-0.53,0.04,-0.34,-0.40,0.23,1.96
1.782,-0.55,0.01,-0.37,-0.40,0.23,1.96
1.786,-0.55,0.01,-0.37,-0.49,0.21,1.93
1.787,-0.58,-0.02,-0.40,-0.49,0.21,1.93
1.79,-0.60,-0.05,-0.43,-0.49,0.21,1.93
1.792,-0.60,-0.05,-0.43,-0.53,0.22,1.95
1.795,-0.60,-0.05,-0.43,-0.59,0.17,1.92
1.796,-0.62,-0.08,-0.45,-0.59,0.17,1.92
1.8,-0.65,-0.09,-0.48,-0.59,0.17,1.92
1.801,-0.65,-0.09,-0.48,-0.63,0.08,1.97
1.811,-0.66,-0.11,-0.50,-0.63,0.08,1.97
1.812,-0.66,-0.11,-0.50,-0.71,0.01,2.10
1.813,-0.66,-0.11,-0.50,-0.88,-0.11,2.20
1.814,-0.67,-0.13,-0.51,-0.88,-0.11,2.20
1.816,-0.67,-0.15,-0.50,-0.88,-0.11,2.20
1.818,-0.67,-0.15,-0.50,-0.94,-0.34,2.30
1.828,-0.67,-0.15,-0.50,-0.93,-0.63,2.46
1.829,-0.66,-0.19,-0.47,-0.93,-0.63,2.46
1.83,-0.66,-0.19,-0.47,-0.73,-0.99,2.52
1.831,-0.64,-0.26,-0.43,-0.73,-0.99,2.52
1.832,-0.64,-0.26,-0.43,-0.28,-1.26,2.48
1.833,-0.60,-0.37,-0.38,-0.28,-1.26,2.48
1.836,-0.60,-0.37,-0.38,0.34,-1.52,2.19
1.837,-0.54,-0.52,-0.32,0.34,-1.52,2.19
1.841,-0.54,-0.52,-0.32,0.95,-1.82,1.66
1.842,-0.48,-0.68,-0.25,0.95,-1.82,1.66
1.846,-0.48,-0.68,-0.25,1.51,-2.16,1.19
1.847,-0.41,-0.82,-0.18,1.51,-2.16,1.19
1.851,-0.41,-0.82,-0.18,1.95,-2.46,0.76
1.852,-0.34,-0.91,-0.10,1.95,-2.46,0.76
1.856,-0.34,-0.91,-0.10,2.08,-2.65,0.46
1.857,-0.26,-0.92,-0.02,2.08,-2.65,0.46
1.861,-0.26,-0.92,-0.02,2.43,-2.75,0.47
1.862,-0.17,-0.85,0.07,2.43,-2.75,0.47
1.866,-0.08,-0.71,0.16,2.43,-2.75,0.47
1.867,-0.08,-0.71,0.16,2.94,-2.89,0.60
1.872,0.02,-0.49,0.23,2.94,-2.89,0.60
1.873,0.02,-0.49,0.23,3.32,-2.94,0.64
1.876,0.12,-0.23,0.27,3.32,-2.94,0.64
1.877,0.12,-0.23,0.27,3.57,-2.83,0.46
1.881,0.20,0.02,0.28,3.57,-2.83,0.46
1.882,0.20,0.02,0.28,3.44,-2.59,0.21
1.886,0.26,0.26,0.26,3.44,-2.59,0.21
1.888,0.26,0.26,0.26,2.94,-2.25,0.14
1.891,0.30,0.42,0.23,2.94,-2.25,0.14
1.892,0.30,0.42,0.23,2.27,-1.96,0.24
1.896,0.32,0.50,0.19,2.27,-1.96,0.24
1.897,0.32,0.50,0.19,1.60,-1.68,0.47
1.901,0.33,0.52,0.15,1.60,-1.68,0.47
1.903,0.33,0.52,0.15,1.01,-1.48,0.62
1.907,0.33,0.48,0.11,1.01,-1.48,0.62
1.908,0.33,0.48,0.11,0.55,-1.30,0.62
1.911,0.33,0.48,0.11,0.24,-1.18,0.50
1.912,0.33,0.40,0.06,0.24,-1.18,0.50
1.917,0.33,0.40,0.06,-0.01,-1.09,0.30
1.917,0.32,0.32,0.00,-0.01,-1.09,0.30
1.923,0.32,0.32,0.00,-0.22,-0.99,-0.07
1.925,0.31,0.22,-0.06,-0.22,-0.99,-0.07
1.927,0.29,0.13,-0.11,-0.22,-0.99,-0.07
1.928,0.29,0.13,-0.11,-0.36,-0.81,-0.46
1.932,0.29,0.13,-0.11,-0.40,-0.60,-0.79
1.933,0.26,0.07,-0.16,-0.40,-0.60,-0.79
1.939,0.26,0.07,-0.16,-0.39,-0.45,-0.98
1.94,0.22,0.03,-0.20,-0.39,-0.45,-0.98
1.942,0.22,0.03,-0.20,-0.40,-0.29,-1.07
1.943,0.19,0.02,-0.22,-0.40,-0.29,-1.07
1.947,0.15,0.02,-0.22,-0.40,-0.29,-1.07
1.948,0.15,0.02,-0.22,-0.39,-0.14,-1.12
1.952,0.15,0.02,-0.22,-0.35,-0.08,-1.22
1.953,0.13,0.04,-0.22,-0.35,-0.08,-1.22
1.957,0.13,0.04,-0.22,-0.36,-0.02,-1.34
1.958,0.11,0.06,-0.22,-0.36,-0.02,-1.34
1.962,0.09,0.09,-0.21,-0.36,-0.02,-1.34
1.963,0.09,0.09,-0.21,-0.45,0.03,-1.60
1.967,0.07,0.12,-0.20,-0.45,0.03,-1.60
1.968,0.07,0.12,-0.20,-0.51,0.08,-1.83
1.981,0.05,0.15,-0.20,-0.51,0.08,-1.83
1.984,0.05,0.15,-0.20,-0.56,0.25,-1.93
1.985,0.03,0.17,-0.20,-0.56,0.25,-1.93
1.987,0.03,0.17,-0.20,-0.67,0.46,-2.04
1.988,0.03,0.17,-0.20,-0.76,0.68,-2.11
1.989,0.01,0.18,-0.21,-0.76,0.68,-2.11
1.99,-0.02,0.19,-0.23,-0.76,0.68,-2.11
1.991,-0.02,0.19,-0.23,-0.85,0.95,-2.17
2.002,-0.04,0.19,-0.26,-0.85,0.95,-2.17
2.005,-0.04,0.19,-0.26,-0.92,1.28,-2.18
2.006,-0.07,0.16,-0.29,-0.92,1.28,-2.18
2.007,-0.07,0.16,-0.29,-1.13,1.65,-2.17
2.008,-0.11,0.13,-0.31,-1.13,1.65,-2.17
2.009,-0.11,0.13,-0.31,-1.36,2.05,-2.18
2.01,-0.15,0.07,-0.31,-1.36,2.05,-2.18
2.011,-0.15,0.07,-0.31,-1.50,2.41,-2.17
2.014,-0.20,-0.01,-0.31,-1.50,2.41,-2.17
2.015,-0.20,-0.01,-0.31,-1.50,2.66,-2.10
2.017,-0.20,-0.01,-0.31,-1.54,2.79,-2.07
2.018,-0.23,-0.10,-0.29,-1.54,2.79,-2.07
2.023,-0.26,-0.19,-0.25,-1.54,2.79,-2.07
2.024,-0.26,-0.19,-0.25,-1.53,2.78,-2.06
2.028,-0.26,-0.19,-0.25,-1.30,2.66,-2.07
2.029,-0.29,-0.25,-0.20,-1.30,2.66,-2.07
2.032,-0.29,-0.25,-0.20,-0.86,2.30,-2.09
2.033,-0.31,-0.27,-0.15,-0.86,2.30,-2.09
2.038,-0.33,-0.25,-0.09,-0.86,2.30,-2.09
2.039,-0.33,-0.25,-0.09,-0.31,1.82,-2.10
2.042,-0.33,-0.25,-0.09,0.14,1.38,-2.04
2.043,-0.34,-0.20,-0.05,0.14,1.38,-2.04
2.047,-0.34,-0.20,-0.05,0.43,1.03,-1.98
2.048,-0.34,-0.13,-0.03,0.43,1.03,-1.98
2.053,-0.34,-0.13,-0.03,0.68,0.68,-1.82
2.054,-0.35,-0.06,-0.01,0.68,0.68,-1.82
2.058,-0.35,-0.06,-0.01,0.82,0.37,-1.54
2.059,-0.34,0.01,-0.00,0.82,0.37,-1.54
2.063,-0.34,0.01,-0.00,0.88,0.14,-1.30
2.063,-0.33,0.07,0.00,0.88,0.14,-1.30
2.068,-0.33,0.07,0.00,0.96,-0.10,-1.08
2.069,-0.31,0.12,0.01,0.96,-0.10,-1.08
2.073,-0.31,0.12,0.01,0.98,-0.35,-0.91
2.074,-0.28,0.17,0.01,0.98,-0.35,-0.91
2.078,-0.28,0.17,0.01,1.13,-0.54,-0.82
2.079,-0.26,0.22,0.01,1.13,-0.54,-0.82
2.082,-0.26,0.22,0.01,1.17,-0.75,-0.71
2.083,-0.23,0.26,0.00,1.17,-0.75,-0.71
2.096,-0.20,0.31,-0.01,1.17,-0.75,-0.71
2.103,-0.20,0.31,-0.01,1.17,-0.95,-0.49
2.104,-0.20,0.31,-0.01,1.16,-1.07,-0.28
2.105,-0.17,0.37,-0.04,1.16,-1.07,-0.28
2.106,-0.17,0.37,-0.04,1.06,-1.27,0.04
2.107,-0.12,0.41,-0.09,1.06,-1.27,0.04
2.109,-0.07,0.43,-0.13,1.06,-1.27,0.04
2.11,-0.07,0.43,-0.13,0.99,-1.21,0.33
2.111,-0.07,0.43,-0.13,0.75,-1.13,0.49
2.112,-0.01,0.43,-0.18,0.75,-1.13,0.49
2.113,0.05,0.41,-0.22,0.75,-1.13,0.49
2.114,0.05,0.41,-0.22,0.39,-1.10,0.45
2.121,0.05,0.41,-0.22,0.13,-0.98,0.46
2.123,0.10,0.38,-0.25,0.13,-0.98,0.46
2.123,0.10,0.38,-0.25,-0.18,-0.82,0.41
2.124,0.15,0.36,-0.27,-0.18,-0.82,0.41
2.128,0.19,0.34,-0.29,-0.18,-0.82,0.41
2.129,0.19,0.34,-0.29,-0.53,-0.69,0.22
2.133,0.19,0.34,-0.29,-0.75,-0.51,0.16
2.134,0.22,0.30,-0.31,-0.75,-0.51,0.16
2.138,0.22,0.30,-0.31,-0.92,-0.37,0.14
2.14,0.25,0.24,-0.31,-0.92,-0.37,0.14
2.143,0.27,0.19,-0.31,-0.92,-0.37,0.14
2.144,0.27,0.19,-0.31,-1.08,-0.22,0.13
2.148,0.29,0.16,-0.29,-1.08,-0.22,0.13
2.149,0.29,0.16,-0.29,-1.19,-0.13,0.02
2.155,0.32,0.13,-0.28,-1.19,-0.13,0.02
2.156,0.32,0.13,-0.28,-1.26,-0.01,-0.13
2.158,0.32,0.13,-0.28,-1.43,0.15,-0.28
2.159,0.33,0.12,-0.27,-1.43,0.15,-0.28
2.163,0.35,0.09,-0.27,-1.43,0.15,-0.28
2.164,0.35,0.09,-0.27,-1.57,0.33,-0.31
2.168,0.35,0.02,-0.28,-1.57,0.33,-0.31
2.17,0.35,0.02,-0.28,-1.66,0.46,-0.22
2.173,0.36,-0.07,-0.28,-1.66,0.46,-0.22
2.175,0.36,-0.07,-0.28,-1.59,0.52,-0.07
2.178,0.35,-0.14,-0.28,-1.59,0.52,-0.07
2.179,0.35,-0.14,-0.28,-1.44,0.59,-0.07
2.184,0.35,-0.14,-0.28,-1.30,0.69,-0.13
2.184,0.35,-0.19,-0.27,-1.30,0.69,-0.13
2.189,0.35,-0.19,-0.27,-1.14,0.75,-0.22
2.191,0.35,-0.22,-0.26,-1.14,0.75,-0.22
2.194,0.35,-0.22,-0.26,-0.96,0.80,-0.24
2.194,0.34,-0.25,-0.25,-0.96,0.80,-0.24
2.199,0.34,-0.25,-0.25,-0.75,0.85,-0.30
2.199,0.34,-0.27,-0.25,-0.75,0.85,-0.30
2.205,0.34,-0.27,-0.25,-0.46,1.04,-0.37
2.207,0.33,-0.29,-0.25,-0.46,1.04,-0.37
2.209,0.33,-0.29,-0.25,-0.57,1.06,-0.34
2.21,0.31,-0.32,-0.27,-0.57,1.06,-0.34
2.214,0.31,-0.32,-0.27,-0.67,1.05,-0.26
2.215,0.30,-0.33,-0.27,-0.67,1.05,-0.26
2.224,0.30,-0.33,-0.27,-0.38,0.95,-0.15
2.225,0.29,-0.32,-0.25,-0.38,0.95,-0.15
2.226,0.29,-0.30,-0.23,-0.38,0.95,-0.15
2.227,0.29,-0.30,-0.23,-0.00,0.75,-0.17
2.228,0.29,-0.30,-0.23,0.22,0.66,-0.15
2.229,0.28,-0.27,-0.23,0.22,0.66,-0.15
2.234,0.28,-0.27,-0.23,0.28,0.64,-0.14
2.235,0.27,-0.23,-0.23,0.28,0.64,-0.14
2.24,0.27,-0.23,-0.23,0.25,0.63,-0.13
2.241,0.27,-0.20,-0.24,0.25,0.63,-0.13
2.251,0.26,-0.15,-0.24,0.25,0.63,-0.13
2.251,0.26,-0.15,-0.24,0.15,0.62,-0.06
2.252,0.25,-0.11,-0.23,0.15,0.62,-0.06
2.255,0.25,-0.11,-0.23,-0.08,0.66,-0.05
2.256,0.25,-0.11,-0.23,-0.20,0.68,-0.02
2.258,0.24,-0.07,-0.22,-0.20,0.68,-0.02
2.259,0.22,-0.04,-0.21,-0.20,0.68,-0.02
2.26,0.22,-0.04,-0.21,-0.20,0.66,0.11
2.269,0.22,-0.04,-0.21,-0.40,0.58,0.21
2.27,0.21,-0.02,-0.20,-0.40,0.58,0.21
2.272,0.21,-0.02,-0.20,-0.44,0.60,0.29
2.272,0.20,-0.00,-0.19,-0.44,0.60,0.29
2.274,0.20,-0.00,-0.19,-0.58,0.59,0.33
2.275,0.20,0.01,-0.18,-0.58,0.59,0.33
2.28,0.20,0.01,-0.18,-0.91,0.51,0.33
2.281,0.20,0.03,-0.17,-0.91,0.51,0.33
2.284,0.20,0.03,-0.17,-1.22,0.46,0.37
2.286,0.20,0.05,-0.17,-1.22,0.46,0.37
2.289,0.19,0.03,-0.16,-1.22,0.46,0.37
2.291,0.19,0.03,-0.16,-1.49,0.48,0.50
2.294,0.19,0.03,-0.16,-1.60,0.48,0.73
2.295,0.19,-0.02,-0.14,-1.60,0.48,0.73
2.299,0.19,-0.09,-0.12,-1.60,0.48,0.73
2.3,0.19,-0.09,-0.12,-1.59,0.52,0.89
2.305,0.18,-0.16,-0.10,-1.59,0.52,0.89
2.307,0.18,-0.16,-0.10,-1.51,0.56,0.91
2.309,0.18,-0.16,-0.10,-1.40,0.50,0.93
2.31,0.18,-0.22,-0.09,-1.40,0.50,0.93
2.314,0.18,-0.22,-0.09,-1.32,0.52,0.99
2.315,0.18,-0.26,-0.07,-1.32,0.52,0.99
2.319,0.18,-0.26,-0.07,-1.32,0.51,0.96
2.32,0.18,-0.29,-0.06,-1.32,0.51,0.96
2.325,0.18,-0.29,-0.06,-1.30,0.51,1.01
2.326,0.18,-0.30,-0.05,-1.30,0.51,1.01
2.329,0.17,-0.32,-0.04,-1.30,0.51,1.01
2.33,0.17,-0.32,-0.04,-1.19,0.49,0.98
2.334,0.17,-0.34,-0.03,-1.19,0.49,0.98
2.335,0.17,-0.34,-0.03,-1.11,0.46,0.93
2.34,0.17,-0.34,-0.03,-1.03,0.39,0.94
2.341,0.17,-0.38,-0.02,-1.03,0.39,0.94
2.344,0.17,-0.38,-0.02,-0.96,0.39,1.00
2.345,0.18,-0.40,-0.01,-0.96,0.39,1.00
2.35,0.19,-0.41,-0.00,-0.96,0.39,1.00
2.35,0.19,-0.41,-0.00,-0.90,0.42,1.04
2.355,0.19,-0.41,-0.00,-0.78,0.44,1.14
2.358,0.20,-0.42,0.01,-0.78,0.44,1.14
2.36,0.21,-0.43,0.03,-0.78,0.44,1.14
2.361,0.21,-0.43,0.03,-0.46,0.46,1.10
2.365,0.21,-0.43,0.03,-0.01,0.49,0.84
2.366,0.22,-0.47,0.04,-0.01,0.49,0.84
2.37,0.21,-0.53,0.03,-0.01,0.49,0.84
2.371,0.21,-0.53,0.03,0.52,0.46,0.45
2.375,0.19,-0.60,0.01,0.52,0.46,0.45
2.376,0.19,-0.60,0.01,1.05,0.43,0.10
2.38,0.17,-0.66,-0.02,1.05,0.43,0.10
2.381,0.17,-0.66,-0.02,1.47,0.52,-0.16
2.385,0.17,-0.66,-0.02,1.83,0.66,-0.39
2.386,0.16,-0.71,-0.05,1.83,0.66,-0.39
2.397,0.17,-0.71,-0.09,1.83,0.66,-0.39
2.402,0.17,-0.71,-0.09,1.99,0.78,-0.56
2.403,0.17,-0.71,-0.09,2.11,1.00,-0.66
2.405,0.18,-0.64,-0.12,2.11,1.00,-0.66
2.406,0.19,-0.51,-0.15,2.11,1.00,-0.66
2.407,0.19,-0.51,-0.15,2.17,1.11,-0.79
2.408,0.19,-0.51,-0.15,2.13,1.07,-0.76
2.41,0.17,-0.34,-0.17,2.13,1.07,-0.76
2.411,0.13,-0.16,-0.17,2.13,1.07,-0.76
2.412,0.13,-0.16,-0.17,2.08,1.01,-0.41
2.415,0.13,-0.16,-0.17,2.05,0.82,0.26
2.417,0.09,-0.03,-0.19,2.05,0.82,0.26
2.424,0.09,-0.03,-0.19,1.90,0.50,1.08
2.425,0.06,0.06,-0.21,1.90,0.50,1.08
2.426,0.06,0.06,-0.21,1.63,0.14,1.82
2.428,0.07,0.11,-0.23,1.63,0.14,1.82
2.43,0.11,0.13,-0.26,1.63,0.14,1.82
2.431,0.11,0.13,-0.26,1.38,-0.13,2.36
2.435,0.11,0.13,-0.26,1.23,-0.24,2.57
2.436,0.17,0.11,-0.28,1.23,-0.24,2.57
2.44,0.24,0.07,-0.30,1.23,-0.24,2.57
2.441,0.24,0.07,-0.30,1.03,-0.33,2.38
2.445,0.24,0.07,-0.30,0.80,-0.41,1.97
2.446,0.29,0.02,-0.31,0.80,-0.41,1.97
2.45,0.32,-0.03,-0.29,0.80,-0.41,1.97
2.451,0.32,-0.03,-0.29,0.62,-0.38,1.63
2.455,0.36,-0.06,-0.26,0.62,-0.38,1.63
2.457,0.36,-0.06,-0.26,0.55,-0.28,1.52
2.46,0.36,-0.06,-0.26,0.70,-0.18,1.42
2.461,0.40,-0.05,-0.21,0.70,-0.18,1.42
2.465,0.40,-0.05,-0.21,0.82,-0.08,1.34
2.466,0.44,-0.03,-0.16,0.82,-0.08,1.34
2.472,0.47,0.02,-0.12,0.82,-0.08,1.34
2.474,0.47,0.02,-0.12,1.02,-0.05,1.36
2.476,0.50,0.07,-0.08,1.02,-0.05,1.36
2.476,0.50,0.07,-0.08,1.32,0.02,1.45
2.48,0.50,0.07,-0.08,1.73,0.18,1.51
2.481,0.52,0.09,-0.05,1.73,0.18,1.51
2.485,0.52,0.09,-0.05,2.12,0.38,1.44
2.486,0.53,0.09,-0.04,2.12,0.38,1.44
2.492,0.53,0.05,-0.04,2.12,0.38,1.44
2.493,0.53,0.05,-0.04,2.39,0.54,1.15
2.502,0.53,0.05,-0.04,2.43,0.59,0.75
2.502,0.52,-0.02,-0.06,2.43,0.59,0.75
2.503,0.52,-0.02,-0.06,2.24,0.66,0.31
2.506,0.51,-0.09,-0.07,2.24,0.66,0.31
2.508,0.50,-0.12,-0.06,2.24,0.66,0.31
2.509,0.50,-0.12,-0.06,1.98,0.81,-0.08
2.52,0.49,-0.09,-0.03,1.98,0.81,-0.08
2.521,0.49,-0.09,-0.03,1.77,0.96,-0.47
2.522,0.48,0.00,0.00,1.77,0.96,-0.47
2.523,0.48,0.00,0.00,1.62,0.94,-0.86
2.524,0.44,0.11,0.05,1.62,0.94,-0.86
2.527,0.44,0.11,0.05,1.55,0.76,-1.13
2.528,0.44,0.11,0.05,1.53,0.46,-1.10
2.529,0.40,0.19,0.09,1.53,0.46,-1.10
2.533,0.40,0.19,0.09,1.60,0.13,-0.75
2.535,0.37,0.23,0.13,1.60,0.13,-0.75
2.536,0.37,0.23,0.13,1.65,-0.17,-0.32
2.537,0.37,0.24,0.15,1.65,-0.17,-0.32
2.541,0.37,0.24,0.15,1.70,-0.38,-0.10
2.543,0.41,0.25,0.15,1.70,-0.38,-0.10
2.546,0.46,0.28,0.14,1.70,-0.38,-0.10
2.547,0.46,0.28,0.14,1.63,-0.46,-0.24
2.551,0.46,0.28,0.14,1.37,-0.47,-0.61
2.552,0.49,0.31,0.13,1.37,-0.47,-0.61
2.556,0.51,0.34,0.11,1.37,-0.47,-0.61
2.558,0.51,0.34,0.11,1.00,-0.41,-1.07
2.561,0.51,0.34,0.11,0.56,-0.32,-1.43
2.562,0.50,0.37,0.12,0.56,-0.32,-1.43
2.566,0.50,0.37,0.12,0.16,-0.29,-1.72
2.567,0.49,0.38,0.13,0.16,-0.29,-1.72
2.571,0.49,0.38,0.13,-0.14,-0.36,-1.94
2.574,0.48,0.40,0.15,-0.14,-0.36,-1.94
2.576,0.48,0.40,0.15,-0.42,-0.48,-2.13
2.577,0.47,0.41,0.16,-0.42,-0.48,-2.13
2.581,0.47,0.41,0.16,-0.64,-0.60,-2.33
2.582,0.47,0.43,0.18,-0.64,-0.60,-2.33
2.586,0.47,0.43,0.18,-0.85,-0.76,-2.47
2.587,0.47,0.45,0.19,-0.85,-0.76,-2.47
2.591,0.47,0.48,0.20,-0.85,-0.76,-2.47
2.593,0.47,0.48,0.20,-1.02,-0.90,-2.56
2.596,0.47,0.48,0.20,-1.20,-1.01,-2.52
2.597,0.46,0.49,0.20,-1.20,-1.01,-2.52
2.601,0.46,0.49,0.20,-1.36,-1.15,-2.49
2.602,0.45,0.48,0.20,-1.36,-1.15,-2.49
2.606,0.45,0.48,0.20,-1.40,-1.24,-2.36
2.608,0.43,0.46,0.20,-1.40,-1.24,-2.36
2.611,0.41,0.43,0.19,-1.40,-1.24,-2.36
2.612,0.41,0.43,0.19,-1.39,-1.33,-2.26
2.617,0.41,0.43,0.19,-1.39,-1.37,-2.18
2.618,0.40,0.39,0.19,-1.39,-1.37,-2.18
2.622,0.40,0.39,0.19,-1.26,-1.39,-2.09
2.625,0.40,0.34,0.19,-1.26,-1.39,-2.09
2.628,0.40,0.34,0.19,-1.09,-1.40,-2.00
2.628,0.39,0.30,0.18,-1.09,-1.40,-2.00
2.632,0.39,0.30,0.18,-0.90,-1.33,-2.01
2.633,0.39,0.25,0.18,-0.90,-1.33,-2.01
2.639,0.39,0.22,0.18,-0.90,-1.33,-2.01
2.641,0.39,0.22,0.18,-0.70,-1.23,-2.01
2.642,0.39,0.22,0.18,-0.51,-1.02,-1.97
2.643,0.39,0.21,0.18,-0.51,-1.02,-1.97
2.647,0.39,0.21,0.18,-0.33,-0.86,-1.97
2.648,0.39,0.21,0.18,-0.33,-0.86,-1.97
2.652,0.38,0.23,0.19,-0.33,-0.86,-1.97
2.653,0.38,0.23,0.19,-0.21,-0.73,-2.00
2.662,0.37,0.26,0.19,-0.21,-0.73,-2.00
2.663,0.37,0.26,0.19,-0.08,-0.56,-1.97
2.664,0.37,0.26,0.19,-0.01,-0.40,-1.94
2.665,0.36,0.29,0.20,-0.01,-0.40,-1.94
2.669,0.36,0.29,0.20,-0.02,-0.30,-1.93
2.67,0.35,0.32,0.21,-0.02,-0.30,-1.93
2.683,0.33,0.35,0.22,-0.02,-0.30,-1.93
2.685,0.33,0.35,0.22,-0.18,-0.29,-1.91
2.686,0.33,0.35,0.22,-0.33,-0.21,-1.83
2.687,0.31,0.37,0.23,-0.33,-0.21,-1.83
2.688,0.29,0.36,0.24,-0.33,-0.21,-1.83
2.689,0.29,0.36,0.24,-0.41,-0.10,-1.79
2.69,0.27,0.33,0.25,-0.41,-0.10,-1.79
2.691,0.27,0.33,0.25,-0.51,-0.03,-1.70
2.692,0.27,0.33,0.25,-0.62,-0.03,-1.66
2.692,0.25,0.28,0.27,-0.62,-0.03,-1.66
2.697,0.25,0.28,0.27,-0.59,0.01,-1.68
2.699,0.23,0.24,0.29,-0.59,0.01,-1.68
2.702,0.23,0.24,0.29,-0.54,-0.14,-1.71
2.703,0.21,0.21,0.31,-0.54,-0.14,-1.71
2.707,0.21,0.21,0.31,-0.45,-0.25,-1.71
2.709,0.20,0.19,0.33,-0.45,-0.25,-1.71
2.712,0.19,0.18,0.33,-0.45,-0.25,-1.71
2.713,0.19,0.18,0.33,-0.33,-0.36,-1.69
2.717,0.19,0.18,0.33,-0.32,-0.42,-1.72
2.718,0.19,0.20,0.33,-0.32,-0.42,-1.72
2.722,0.19,0.20,0.33,-0.40,-0.51,-1.72
2.724,0.18,0.22,0.32,-0.40,-0.51,-1.72
2.727,0.18,0.22,0.31,-0.40,-0.51,-1.72
2.728,0.18,0.22,0.31,-0.43,-0.52,-1.70
2.732,0.18,0.22,0.31,-0.50,-0.49,-1.60
2.733,0.16,0.22,0.30,-0.50,-0.49,-1.60
2.739,0.16,0.22,0.30,-0.61,-0.51,-1.52
2.74,0.14,0.21,0.29,-0.61,-0.51,-1.52
2.743,0.13,0.19,0.28,-0.61,-0.51,-1.52
2.743,0.13,0.19,0.28,-0.71,-0.52,-1.44
2.752,0.13,0.19,0.28,-0.80,-0.60,-1.33
2.753,0.10,0.17,0.28,-0.80,-0.60,-1.33
2.758,0.10,0.17,0.28,-0.79,-0.66,-1.18
2.764,0.10,0.17,0.28,-0.80,-0.72,-1.08
2.765,0.10,0.17,0.28,-0.81,-0.79,-1.00
2.766,0.09,0.14,0.28,-0.81,-0.79,-1.00
2.768,0.07,0.11,0.28,-0.81,-0.79,-1.00
2.769,0.06,0.09,0.27,-0.81,-0.79,-1.00
2.77,0.06,0.09,0.27,-0.77,-0.83,-0.97
2.773,0.06,0.07,0.27,-0.77,-0.83,-0.97
2.774,0.06,0.07,0.27,-0.75,-0.82,-0.86
2.775,0.05,0.05,0.27,-0.75,-0.82,-0.86
2.778,0.05,0.04,0.26,-0.75,-0.82,-0.86
2.779,0.05,0.04,0.26,-0.72,-0.91,-0.71
2.783,0.05,0.04,0.26,-0.67,-0.91,-0.64
2.783,0.04,0.03,0.25,-0.67,-0.91,-0.64
2.795,0.04,0.03,0.25,-0.61,-0.91,-0.52
2.798,0.05,0.02,0.24,-0.61,-0.91,-0.52
2.806,0.05,0.01,0.24,-0.61,-0.91,-0.52
2.807,0.05,0.01,0.24,-0.56,-0.92,-0.49
2.808,0.06,-0.00,0.23,-0.56,-0.92,-0.49
2.809,0.06,-0.00,0.23,-0.52,-0.99,-0.48
2.81,0.06,-0.00,0.23,-0.41,-1.03,-0.41
2.811,0.06,-0.02,0.22,-0.41,-1.03,-0.41
2.812,0.07,-0.04,0.21,-0.41,-1.03,-0.41
2.813,0.07,-0.04,0.21,-0.44,-1.07,-0.50
2.814,0.07,-0.04,0.20,-0.44,-1.07,-0.50
2.814,0.07,-0.04,0.20,-0.52,-1.13,-0.59
2.818,0.07,-0.03,0.19,-0.52,-1.13,-0.59
2.819,0.07,-0.03,0.19,-0.58,-1.15,-0.64
2.824,0.06,-0.03,0.18,-0.58,-1.15,-0.64
2.824,0.06,-0.03,0.18,-0.66,-1.19,-0.54
2.828,0.06,-0.03,0.18,-0.71,-1.17,-0.39
2.829,0.07,-0.04,0.16,-0.71,-1.17,-0.39
2.833,0.07,-0.07,0.15,-0.71,-1.17,-0.39
2.834,0.07,-0.07,0.15,-0.65,-1.08,-0.28
2.839,0.07,-0.11,0.13,-0.65,-1.08,-0.28
2.84,0.07,-0.11,0.13,-0.54,-0.92,-0.22
2.844,0.07,-0.11,0.13,-0.46,-0.81,-0.24
2.845,0.07,-0.13,0.12,-0.46,-0.81,-0.24
2.848,0.07,-0.13,0.12,-0.38,-0.72,-0.29
2.849,0.07,-0.14,0.12,-0.38,-0.72,-0.29
2.854,0.06,-0.13,0.12,-0.38,-0.72,-0.29
2.856,0.06,-0.13,0.12,-0.31,-0.69,-0.36
2.858,0.06,-0.13,0.12,-0.27,-0.67,-0.37
2.859,0.05,-0.12,0.12,-0.27,-0.67,-0.37
2.863,0.04,-0.10,0.11,-0.27,-0.67,-0.37
2.864,0.04,-0.10,0.11,-0.23,-0.58,-0.29
2.868,0.04,-0.09,0.10,-0.23,-0.58,-0.29
2.87,0.04,-0.09,0.10,-0.29,-0.49,-0.24
2.874,0.04,-0.09,0.10,-0.35,-0.43,-0.21
2.876,0.04,-0.09,0.08,-0.35,-0.43,-0.21
2.878,0.04,-0.09,0.08,-0.50,-0.38,-0.18
2.879,0.03,-0.09,0.06,-0.50,-0.38,-0.18
2.883,0.03,-0.09,0.06,-0.55,-0.32,-0.16
2.884,0.02,-0.10,0.05,-0.55,-0.32,-0.16
2.889,0.01,-0.11,0.04,-0.55,-0.32,-0.16
2.891,0.01,-0.11,0.04,-0.56,-0.27,-0.11
2.894,-0.01,-0.12,0.04,-0.56,-0.27,-0.11
2.895,-0.01,-0.12,0.04,-0.56,-0.23,0.04
2.899,-0.02,-0.13,0.03,-0.56,-0.23,0.04
2.9,-0.02,-0.13,0.03,-0.55,-0.27,0.13
2.905,-0.03,-0.14,0.03,-0.55,-0.27,0.13
2.907,-0.03,-0.14,0.03,-0.46,-0.23,0.22
2.909,-0.04,-0.15,0.01,-0.46,-0.23,0.22
2.91,-0.04,-0.15,0.01,-0.32,-0.22,0.27
2.914,-0.04,-0.15,-0.02,-0.32,-0.22,0.27
2.915,-0.04,-0.15,-0.02,-0.20,-0.24,0.26
2.919,-0.05,-0.15,-0.04,-0.20,-0.24,0.26
2.92,-0.05,-0.15,-0.04,-0.23,-0.25,0.30
2.925,-0.05,-0.15,-0.04,-0.24,-0.25,0.35
2.926,-0.05,-0.14,-0.07,-0.24,-0.25,0.35
2.929,-0.06,-0.13,-0.10,-0.24,-0.25,0.35
2.929,-0.06,-0.13,-0.10,-0.31,-0.26,0.35
2.934,-0.07,-0.12,-0.12,-0.31,-0.26,0.35
2.935,-0.07,-0.12,-0.12,-0.39,-0.30,0.42
2.945,-0.07,-0.12,-0.12,-0.51,-0.37,0.52
2.946,-0.08,-0.12,-0.15,-0.51,-0.37,0.52
2.947,-0.08,-0.12,-0.15,-0.62,-0.49,0.63
2.95,-0.08,-0.12,-0.16,-0.62,-0.49,0.63
2.951,-0.08,-0.13,-0.17,-0.62,-0.49,0.63
2.953,-0.08,-0.13,-0.17,-0.68,-0.55,0.67
2.963,-0.08,-0.15,-0.18,-0.68,-0.55,0.67
2.965,-0.08,-0.15,-0.18,-0.69,-0.53,0.75
2.966,-0.07,-0.18,-0.19,-0.69,-0.53,0.75
2.967,-0.07,-0.18,-0.19,-0.74,-0.54,0.61
2.967,-0.08,-0.22,-0.20,-0.74,-0.54,0.61
2.969,-0.08,-0.22,-0.20,-0.79,-0.66,0.57
2.97,-0.08,-0.22,-0.20,-0.81,-0.75,0.56
2.972,-0.09,-0.28,-0.20,-0.81,-0.75,0.56
2.975,-0.10,-0.32,-0.20,-0.81,-0.75,0.56
2.977,-0.10,-0.32,-0.20,-0.68,-0.83,0.53
2.979,-0.10,-0.35,-0.19,-0.68,-0.83,0.53
2.98,-0.10,-0.35,-0.19,-0.40,-0.88,0.53
2.984,-0.10,-0.35,-0.19,-0.16,-0.86,0.51
2.985,-0.11,-0.37,-0.19,-0.16,-0.86,0.51
2.99,-0.11,-0.38,-0.20,-0.16,-0.86,0.51
2.991,-0.11,-0.38,-0.20,0.09,-0.76,0.38
2.994,-0.11,-0.38,-0.20,0.40,-0.66,0.28
2.995,-0.12,-0.39,-0.21,0.40,-0.66,0.28
3.004,-0.12,-0.39,-0.21,0.63,-0.53,0.32
3.005,-0.12,-0.39,-0.22,0.63,-0.53,0.32
3.008,-0.12,-0.39,-0.22,0.80,-0.36,0.43
3.009,-0.12,-0.37,-0.23,0.80,-0.36,0.43
3.011,-0.12,-0.37,-0.23,0.92,-0.18,0.50
3.012,-0.12,-0.32,-0.24,0.92,-0.18,0.50
3.015,-0.12,-0.32,-0.24,0.97,-0.00,0.53
3.017,-0.13,-0.27,-0.23,0.97,-0.00,0.53
3.022,-0.13,-0.27,-0.23,1.02,0.17,0.49
3.023,-0.13,-0.21,-0.23,1.02,0.17,0.49
3.024,-0.13,-0.21,-0.23,1.02,0.21,0.43
3.025,-0.15,-0.15,-0.22,1.02,0.21,0.43
3.03,-0.15,-0.15,-0.22,0.96,0.28,0.44
3.03,-0.17,-0.09,-0.20,0.96,0.28,0.44
3.035,-0.17,-0.09,-0.20,0.86,0.30,0.40
3.036,-0.19,-0.03,-0.20,0.86,0.30,0.40
3.041,-0.22,0.03,-0.18,0.86,0.30,0.40
3.042,-0.22,0.03,-0.18,0.76,0.24,0.48
3.045,-0.25,0.07,-0.17,0.76,0.24,0.48
3.045,-0.25,0.07,-0.17,0.61,0.08,0.54
3.05,-0.25,0.07,-0.17,0.47,-0.08,0.65
3.05,-0.28,0.11,-0.16,0.47,-0.08,0.65
3.062,-0.30,0.14,-0.15,0.47,-0.08,0.65
3.064,-0.30,0.14,-0.15,0.36,-0.15,0.88
3.066,-0.30,0.14,-0.15,0.29,-0.19,1.10
3.067,-0.31,0.15,-0.15,0.29,-0.19,1.10
3.07,-0.33,0.16,-0.15,0.29,-0.19,1.10
3.073,-0.33,0.16,-0.15,0.20,-0.15,1.30
3.074,-0.35,0.16,-0.14,0.20,-0.15,1.30
3.075,-0.35,0.16,-0.14,0.14,-0.14,1.41
3.076,-0.35,0.16,-0.14,0.05,-0.16,1.58
3.077,-0.38,0.15,-0.14,0.05,-0.16,1.58
3.08,-0.38,0.15,-0.14,-0.01,-0.21,1.70
3.081,-0.41,0.14,-0.14,-0.01,-0.21,1.70
3.085,-0.45,0.14,-0.14,-0.01,-0.21,1.70
3.086,-0.45,0.14,-0.14,-0.03,-0.25,1.92
3.09,-0.45,0.14,-0.14,-0.02,-0.21,2.12
3.092,-0.47,0.14,-0.15,-0.02,-0.21,2.12
3.095,-0.47,0.14,-0.15,-0.06,-0.27,2.18
3.096,-0.49,0.14,-0.16,-0.06,-0.27,2.18
3.1,-0.51,0.12,-0.17,-0.06,-0.27,2.18
3.101,-0.51,0.12,-0.17,-0.14,-0.33,2.18
3.106,-0.51,0.12,-0.17,-0.12,-0.38,2.20
3.108,-0.53,0.09,-0.19,-0.12,-0.38,2.20
3.11,-0.53,0.09,-0.19,-0.08,-0.50,2.22
3.111,-0.55,0.05,-0.20,-0.08,-0.50,2.22
3.115,-0.55,0.05,-0.20,-0.00,-0.66,2.19
3.116,-0.56,-0.04,-0.22,-0.00,-0.66,2.19
3.12,-0.56,-0.04,-0.22,0.27,-0.73,2.16
3.121,-0.57,-0.15,-0.22,0.27,-0.73,2.16
3.125,-0.56,-0.30,-0.20,0.27,-0.73,2.16
3.127,-0.56,-0.30,-0.20,0.77,-0.81,1.91
3.13,-0.56,-0.30,-0.20,1.40,-1.05,1.37
3.131,-0.54,-0.45,-0.18,1.40,-1.05,1.37
3.135,-0.54,-0.45,-0.18,2.11,-1.19,0.62
3.136,-0.52,-0.58,-0.15,2.11,-1.19,0.62
3.14,-0.52,-0.58,-0.15,2.83,-1.34,-0.00
3.142,-0.51,-0.66,-0.14,2.83,-1.34,-0.00
3.145,-0.51,-0.66,-0.14,3.31,-1.43,-0.28
3.146,-0.50,-0.67,-0.13,3.31,-1.43,-0.28
3.15,-0.50,-0.67,-0.13,3.53,-1.43,-0.37
3.151,-0.47,-0.61,-0.10,3.53,-1.43,-0.37
3.156,-0.47,-0.61,-0.10,3.66,-1.46,-0.38
3.158,-0.42,-0.50,-0.07,3.66,-1.46,-0.38
3.16,-0.42,-0.50,-0.07,3.91,-1.65,-0.32
3.161,-0.35,-0.39,-0.02,3.91,-1.65,-0.32
3.166,-0.35,-0.39,-0.02,4.07,-1.79,-0.68
3.167,-0.27,-0.29,0.04,4.07,-1.79,-0.68
3.171,-0.19,-0.19,0.09,4.07,-1.79,-0.68
3.173,-0.19,-0.19,0.09,4.02,-2.00,-1.24
3.176,-0.10,-0.08,0.14,4.02,-2.00,-1.24
3.177,-0.10,-0.08,0.14,3.77,-2.22,-1.72
3.18,-0.01,0.06,0.19,3.77,-2.22,-1.72
3.181,-0.01,0.06,0.19,3.45,-2.42,-2.14
3.186,0.06,0.26,0.22,3.45,-2.42,-2.14
3.187,0.06,0.26,0.22,3.07,-2.48,-2.55
3.191,0.06,0.26,0.22,2.75,-2.43,-2.82
3.192,0.12,0.52,0.21,2.75,-2.43,-2.82
3.196,0.15,0.77,0.18,2.75,-2.43,-2.82
3.197,0.15,0.77,0.18,2.31,-2.29,-2.76
3.201,0.15,0.77,0.18,1.58,-1.99,-2.31
3.201,0.14,0.94,0.12,1.58,-1.99,-2.31
3.212,0.14,0.94,0.12,0.69,-1.69,-1.76
3.214,0.14,1.04,0.07,0.69,-1.69,-1.76
3.215,0.13,1.05,0.01,0.69,-1.69,-1.76
3.216,0.13,1.05,0.01,-0.08,-1.40,-1.35
3.218,0.13,1.00,-0.04,-0.08,-1.40,-1.35
3.233,0.13,1.00,-0.04,-0.78,-1.11,-1.22
3.234,0.13,1.00,-0.04,-1.41,-0.82,-1.42
3.235,0.12,0.91,-0.10,-1.41,-0.82,-1.42
3.237,0.10,0.82,-0.16,-1.41,-0.82,-1.42
3.239,0.10,0.82,-0.16,-1.97,-0.49,-1.71
3.24,0.07,0.74,-0.22,-1.97,-0.49,-1.71
3.241,0.07,0.74,-0.22,-2.48,-0.07,-1.99
3.241,0.02,0.65,-0.27,-2.48,-0.07,-1.99
3.242,0.02,0.65,-0.27,-2.85,0.37,-2.07
3.243,-0.03,0.56,-0.32,-2.85,0.37,-2.07
3.243,-0.03,0.56,-0.32,-3.12,0.77,-1.87
3.246,-0.07,0.45,-0.35,-3.12,0.77,-1.87
3.248,-0.07,0.45,-0.35,-3.22,1.22,-1.47
3.259,-0.07,0.45,-0.35,-3.10,1.62,-1.05
3.261,-0.09,0.32,-0.36,-3.10,1.62,-1.05
3.263,-0.11,0.16,-0.36,-3.10,1.62,-1.05
3.263,-0.11,0.16,-0.36,-2.85,1.81,-0.70
3.264,-0.11,0.01,-0.34,-2.85,1.81,-0.70
3.265,-0.11,0.01,-0.34,-2.46,1.93,-0.51
3.266,-0.11,-0.12,-0.31,-2.46,1.93,-0.51
3.267,-0.11,-0.12,-0.31,-1.87,1.93,-0.46
3.274,-0.10,-0.23,-0.27,-1.87,1.93,-0.46
3.275,-0.10,-0.23,-0.27,-1.26,1.82,-0.46
3.276,-0.10,-0.23,-0.27,-0.58,1.63,-0.49
3.277,-0.08,-0.27,-0.23,-0.58,1.63,-0.49
3.281,-0.05,-0.27,-0.19,-0.58,1.63,-0.49
3.282,-0.05,-0.27,-0.19,0.03,1.44,-0.51
3.288,-0.05,-0.27,-0.19,0.47,1.21,-0.62
3.29,-0.00,-0.23,-0.15,0.47,1.21,-0.62
3.292,0.04,-0.17,-0.12,0.47,1.21,-0.62
3.293,0.04,-0.17,-0.12,0.85,0.92,-0.74
3.296,0.08,-0.10,-0.08,0.85,0.92,-0.74
3.297,0.08,-0.10,-0.08,1.10,0.61,-0.91
3.301,0.08,-0.10,-0.08,1.28,0.29,-1.05
3.302,0.11,-0.01,-0.05,1.28,0.29,-1.05
3.307,0.14,0.09,-0.02,1.28,0.29,-1.05
3.308,0.14,0.09,-0.02,1.33,-0.07,-1.14
3.312,0.14,0.09,-0.02,1.29,-0.47,-1.22
3.313,0.16,0.19,-0.00,1.29,-0.47,-1.22
3.317,0.19,0.28,0.01,1.29,-0.47,-1.22
3.318,0.19,0.28,0.01,1.18,-0.86,-1.27
3.322,0.19,0.28,0.01,0.99,-1.10,-1.22
3.324,0.21,0.36,0.01,0.99,-1.10,-1.22
3.327,0.24,0.42,-0.01,0.99,-1.10,-1.22
3.328,0.24,0.42,-0.01,0.65,-1.26,-1.18
3.332,0.24,0.42,-0.01,0.30,-1.33,-1.15
3.332,0.27,0.44,-0.03,0.30,-1.33,-1.15
3.336,0.30,0.44,-0.05,0.30,-1.33,-1.15
3.337,0.30,0.44,-0.05,-0.13,-1.42,-1.04
3.343,0.32,0.40,-0.07,-0.13,-1.42,-1.04
3.35,0.36,0.36,-0.08,-0.13,-1.42,-1.04
3.351,0.36,0.36,-0.08,-0.53,-1.45,-0.94
3.352,0.36,0.36,-0.08,-0.88,-1.42,-0.86
3.353,0.36,0.36,-0.08,-1.06,-1.36,-0.75
3.363,0.39,0.31,-0.08,-1.06,-1.36,-0.75
3.364,0.43,0.25,-0.08,-1.06,-1.36,-0.75
3.365,0.43,0.25,-0.08,-1.16,-1.20,-0.72
3.366,0.46,0.19,-0.09,-1.16,-1.20,-0.72
3.367,0.46,0.19,-0.09,-1.21,-1.12,-0.70
3.385,0.49,0.12,-0.09,-1.21,-1.12,-0.70
3.386,0.49,0.12,-0.09,-1.21,-1.01,-0.65
3.388,0.49,0.12,-0.09,-1.21,-0.86,-0.63
3.389,0.53,0.05,-0.10,-1.21,-0.86,-0.63
3.39,0.56,-0.02,-0.11,-1.21,-0.86,-0.63
3.391,0.56,-0.02,-0.11,-1.06,-0.76,-0.54
3.392,0.56,-0.02,-0.11,-0.74,-0.58,-0.45
3.392,0.58,-0.08,-0.11,-0.74,-0.58,-0.45
3.393,0.58,-0.08,-0.11,-0.68,-0.29,-0.49
3.393,0.61,-0.14,-0.13,-0.68,-0.29,-0.49
3.394,0.61,-0.14,-0.13,-0.71,-0.12,-0.54
3.395,0.63,-0.19,-0.14,-0.71,-0.12,-0.54
3.397,0.65,-0.21,-0.15,-0.71,-0.12,-0.54
3.399,0.65,-0.21,-0.15,-0.35,0.01,-0.53
3.402,0.67,-0.20,-0.15,-0.35,0.01,-0.53
3.403,0.67,-0.20,-0.15,0.08,0.17,-0.60
3.407,0.68,-0.19,-0.17,0.08,0.17,-0.60
3.409,0.68,-0.19,-0.17,0.38,0.33,-0.76
3.412,0.68,-0.19,-0.17,0.47,0.48,-0.91
3.413,0.68,-0.18,-0.20,0.47,0.48,-0.91
3.417,0.67,-0.16,-0.22,0.47,0.48,-0.91
3.418,0.67,-0.16,-0.22,0.34,0.66,-1.02
3.422,0.67,-0.16,-0.22,0.13,0.79,-1.10
3.424,0.66,-0.12,-0.23,0.13,0.79,-1.10
3.428,0.66,-0.12,-0.23,0.03,0.91,-1.07
3.429,0.65,-0.07,-0.22,0.03,0.91,-1.07
3.432,0.65,-0.07,-0.22,-0.08,0.97,-1.09
3.433,0.64,-0.02,-0.21,-0.08,0.97,-1.09
3.438,0.64,-0.02,-0.21,-0.20,0.95,-1.07
3.44,0.63,0.03,-0.19,-0.20,0.95,-1.07
3.443,0.61,0.07,-0.19,-0.20,0.95,-1.07
3.443,0.61,0.07,-0.19,-0.37,0.90,-0.92
3.448,0.60,0.08,-0.18,-0.37,0.90,-0.92
3.449,0.60,0.08,-0.18,-0.52,0.89,-0.80
3.452,0.60,0.08,-0.18,-0.73,0.92,-0.70
3.453,0.58,0.08,-0.18,-0.73,0.92,-0.70
3.458,0.57,0.06,-0.18,-0.73,0.92,-0.70
3.459,0.57,0.06,-0.18,-0.93,0.93,-0.67
3.463,0.55,0.05,-0.17,-0.93,0.93,-0.67
3.463,0.55,0.05,-0.17,-1.17,0.90,-0.69
3.468,0.55,0.05,-0.17,-1.37,0.83,-0.61
3.469,0.53,0.02,-0.16,-1.37,0.83,-0.61
3.479,0.53,0.02,-0.16,-1.48,0.74,-0.51
3.48,0.51,-0.02,-0.14,-1.48,0.74,-0.51
3.482,0.50,-0.06,-0.12,-1.48,0.74,-0.51
3.483,0.50,-0.06,-0.12,-1.41,0.69,-0.46
3.484,0.48,-0.10,-0.10,-1.41,0.69,-0.46
3.485,0.48,-0.10,-0.10,-1.33,0.67,-0.44
3.499,0.48,-0.10,-0.10,-1.22,0.66,-0.42
3.501,0.47,-0.14,-0.09,-1.22,0.66,-0.42
3.501,0.47,-0.14,-0.09,-1.09,0.64,-0.42
3.502,0.47,-0.17,-0.09,-1.09,0.64,-0.42
3.503,0.46,-0.20,-0.08,-1.09,0.64,-0.42
3.503,0.46,-0.20,-0.08,-1.02,0.68,-0.39
3.514,0.45,-0.22,-0.07,-1.02,0.68,-0.39
3.514,0.45,-0.22,-0.07,-0.92,0.66,-0.38
3.516,0.45,-0.24,-0.06,-0.92,0.66,-0.38
3.518,0.45,-0.24,-0.06,-0.81,0.66,-0.32
3.519,0.44,-0.25,-0.05,-0.81,0.66,-0.32
3.52,0.44,-0.25,-0.05,-0.69,0.59,-0.24
3.521,0.43,-0.26,-0.04,-0.69,0.59,-0.24
3.522,0.43,-0.26,-0.04,-0.63,0.52,-0.21
3.523,0.43,-0.26,-0.02,-0.63,0.52,-0.21
3.524,0.43,-0.26,-0.02,-0.54,0.44,-0.17
3.528,0.43,-0.26,-0.02,-0.39,0.40,-0.10
3.529,0.42,-0.26,-0.01,-0.39,0.40,-0.10
3.533,0.42,-0.26,-0.01,-0.29,0.38,-0.09
3.534,0.42,-0.25,0.00,-0.29,0.38,-0.09
3.539,0.42,-0.24,0.01,-0.29,0.38,-0.09
3.541,0.42,-0.24,0.01,-0.26,0.37,-0.02
3.543,0.42,-0.23,0.02,-0.26,0.37,-0.02
3.544,0.42,-0.23,0.02,-0.26,0.38,0.01
3.548,0.41,-0.21,0.02,-0.26,0.38,0.01
3.549,0.41,-0.21,0.02,-0.17,0.34,-0.01
3.555,0.40,-0.20,0.03,-0.17,0.34,-0.01
3.556,0.40,-0.20,0.03,-0.11,0.37,0.05
3.56,0.40,-0.20,0.03,-0.14,0.42,0.08
3.56,0.39,-0.18,0.03,-0.14,0.42,0.08
3.563,0.39,-0.16,0.03,-0.14,0.42,0.08
3.564,0.39,-0.16,0.03,-0.33,0.40,0.09
3.568,0.38,-0.12,0.04,-0.33,0.40,0.09
3.569,0.38,-0.12,0.04,-0.67,0.33,0.12
3.573,0.38,-0.10,0.05,-0.67,0.33,0.12
3.575,0.38,-0.10,0.05,-0.94,0.35,0.25
3.578,0.38,-0.10,0.05,-1.13,0.34,0.42
3.579,0.38,-0.12,0.07,-1.13,0.34,0.42
3.583,0.37,-0.15,0.09,-1.13,0.34,0.42
3.584,0.37,-0.15,0.09,-1.27,0.29,0.50
3.589,0.37,-0.15,0.09,-1.32,0.32,0.59
3.59,0.37,-0.20,0.12,-1.32,0.32,0.59
3.594,0.37,-0.24,0.14,-1.32,0.32,0.59
3.595,0.37,-0.24,0.14,-1.20,0.29,0.62
3.598,0.37,-0.28,0.16,-1.20,0.29,0.62
3.599,0.37,-0.28,0.16,-1.06,0.20,0.67
3.612,0.37,-0.32,0.17,-1.06,0.20,0.67
3.614,0.37,-0.32,0.17,-0.94,0.08,0.66
3.614,0.38,-0.34,0.18,-0.94,0.08,0.66
3.616,0.38,-0.34,0.18,-0.78,0.03,0.72
3.618,0.38,-0.34,0.18,-0.50,0.05,0.76
3.619,0.38,-0.36,0.18,-0.50,0.05,0.76
3.632,0.38,-0.38,0.17,-0.50,0.05,0.76
3.634,0.38,-0.38,0.17,-0.23,0.04,0.75
3.635,0.38,-0.38,0.17,0.05,0.10,0.63
3.636,0.38,-0.41,0.16,0.05,0.10,0.63
3.637,0.37,-0.44,0.13,0.05,0.10,0.63
3.638,0.37,-0.44,0.13,0.29,0.24,0.57
3.639,0.37,-0.44,0.13,0.57,0.52,0.48
3.64,0.36,-0.45,0.11,0.57,0.52,0.48
3.641,0.35,-0.46,0.08,0.57,0.52,0.48
3.641,0.35,-0.46,0.08,0.83,0.76,0.21
3.644,0.35,-0.46,0.08,0.96,0.92,-0.05
3.646,0.32,-0.45,0.05,0.96,0.92,-0.05
3.649,0.29,-0.44,0.03,0.96,0.92,-0.05
3.65,0.29,-0.44,0.03,0.91,1.01,-0.13
3.655,0.27,-0.42,0.02,0.91,1.01,-0.13
3.657,0.27,-0.42,0.02,0.79,0.88,0.04
3.659,0.28,-0.38,0.04,0.79,0.88,0.04
3.66,0.28,-0.38,0.04,0.54,0.68,0.26
3.664,0.31,-0.29,0.07,0.54,0.68,0.26
3.665,0.31,-0.29,0.07,0.37,0.37,0.52
3.669,0.36,-0.17,0.12,0.37,0.37,0.52
3.67,0.36,-0.17,0.12,0.28,0.03,0.76
3.674,0.41,-0.06,0.16,0.28,0.03,0.76
3.676,0.41,-0.06,0.16,0.24,-0.29,0.97
3.679,0.41,-0.06,0.16,0.27,-0.59,1.13
3.68,0.44,0.02,0.20,0.27,-0.59,1.13
3.684,0.46,0.05,0.22,0.27,-0.59,1.13
3.685,0.46,0.05,0.22,0.29,-0.83,1.31
3.69,0.46,0.05,0.22,0.24,-1.02,1.44
3.692,0.47,0.05,0.23,0.24,-1.02,1.44
3.694,0.50,0.03,0.23,0.24,-1.02,1.44
3.695,0.50,0.03,0.23,0.24,-1.14,1.51
3.699,0.53,0.00,0.23,0.24,-1.14,1.51
3.7,0.53,0.00,0.23,0.14,-1.21,1.52
3.706,0.56,-0.01,0.23,0.14,-1.21,1.52
3.708,0.56,-0.01,0.23,0.00,-1.21,1.40
3.71,0.60,-0.01,0.24,0.00,-1.21,1.40
3.71,0.60,-0.01,0.24,-0.08,-1.18,1.36
3.715,0.63,0.02,0.25,-0.08,-1.18,1.36
3.715,0.63,0.02,0.25,-0.25,-1.14,1.43
3.72,0.63,0.02,0.25,-0.31,-1.04,1.61
3.721,0.66,0.05,0.26,-0.31,-1.04,1.61
3.725,0.66,0.05,0.26,-0.36,-1.00,1.80
3.726,0.70,0.07,0.27,-0.36,-1.00,1.80
3.729,0.73,0.07,0.29,-0.36,-1.00,1.80
3.73,0.73,0.07,0.29,-0.33,-0.94,2.03
3.735,0.76,0.04,0.30,-0.33,-0.94,2.03
3.736,0.76,0.04,0.30,-0.20,-0.96,2.23
3.74,0.76,0.04,0.30,0.07,-1.01,2.33
3.742,0.78,-0.01,0.29,0.07,-1.01,2.33
3.744,0.81,-0.07,0.28,0.07,-1.01,2.33
3.745,0.81,-0.07,0.28,0.38,-1.01,2.28
3.75,0.84,-0.14,0.25,0.38,-1.01,2.28
3.751,0.84,-0.14,0.25,0.85,-0.95,2.07
3.761,0.85,-0.23,0.20,0.85,-0.95,2.07
3.762,0.85,-0.23,0.20,1.44,-0.82,1.69
3.765,0.86,-0.32,0.14,1.44,-0.82,1.69
3.766,0.86,-0.32,0.14,2.03,-0.54,1.11
3.767,0.86,-0.40,0.07,2.03,-0.54,1.11
3.768,0.86,-0.40,0.07,2.69,-0.25,0.50
3.78,0.84,-0.48,-0.00,2.69,-0.25,0.50
3.781,0.84,-0.48,-0.00,3.28,0.08,-0.09
3.782,0.84,-0.48,-0.00,3.71,0.41,-0.68
3.783,0.81,-0.53,-0.09,3.71,0.41,-0.68
3.785,0.81,-0.53,-0.09,3.85,0.71,-1.14
3.786,0.78,-0.54,-0.17,3.85,0.71,-1.14
3.787,0.75,-0.48,-0.24,3.85,0.71,-1.14
3.788,0.75,-0.48,-0.24,3.84,1.00,-1.40
3.797,0.70,-0.36,-0.29,3.84,1.00,-1.40
3.799,0.70,-0.36,-0.29,3.94,1.43,-1.52
3.8,0.70,-0.36,-0.29,3.88,1.93,-1.55
3.801,0.63,-0.19,-0.32,3.88,1.93,-1.55
3.801,0.55,-0.01,-0.34,3.88,1.93,-1.55
3.802,0.55,-0.01,-0.34,3.55,2.42,-1.56
3.806,0.45,0.15,-0.33,3.55,2.42,-1.56
3.807,0.45,0.15,-0.33,2.98,2.81,-1.64
3.81,0.36,0.27,-0.30,2.98,2.81,-1.64
3.811,0.36,0.27,-0.30,2.31,3.01,-1.71
3.815,0.27,0.34,-0.26,2.31,3.01,-1.71
3.816,0.27,0.34,-0.26,1.78,3.12,-1.79
3.822,0.27,0.34,-0.26,1.40,3.14,-1.81
3.824,0.19,0.37,-0.21,1.40,3.14,-1.81
3.825,0.14,0.39,-0.16,1.40,3.14,-1.81
3.826,0.14,0.39,-0.16,1.00,3.14,-1.67
3.83,0.14,0.39,-0.16,0.57,3.05,-1.58
3.831,0.11,0.41,-0.12,0.57,3.05,-1.58
3.835,0.11,0.41,-0.12,0.12,2.91,-1.35
3.836,0.10,0.46,-0.06,0.12,2.91,-1.35
3.84,0.11,0.52,0.01,0.12,2.91,-1.35
3.842,0.11,0.52,0.01,-0.24,2.68,-1.11
3.845,0.11,0.52,0.01,-0.58,2.29,-1.02
3.846,0.12,0.58,0.08,-0.58,2.29,-1.02
3.85,0.12,0.58,0.08,-0.86,1.80,-1.01
3.851,0.13,0.64,0.15,-0.86,1.80,-1.01
3.856,0.13,0.64,0.15,-1.06,1.34,-0.91
3.858,0.13,0.67,0.22,-1.06,1.34,-0.91
3.86,0.13,0.67,0.22,-1.33,0.78,-0.80
3.861,0.13,0.68,0.26,-1.33,0.78,-0.80
3.865,0.13,0.68,0.26,-1.60,0.21,-0.74
3.866,0.14,0.66,0.30,-1.60,0.21,-0.74
3.873,0.14,0.66,0.30,-1.82,-0.28,-0.77
3.875,0.16,0.61,0.33,-1.82,-0.28,-0.77
3.876,0.16,0.61,0.33,-1.96,-0.67,-0.92
3.877,0.19,0.55,0.35,-1.96,-0.67,-0.92
3.881,0.19,0.55,0.35,-1.96,-1.06,-1.14
3.882,0.21,0.48,0.35,-1.96,-1.06,-1.14
3.886,0.21,0.48,0.35,-1.98,-1.43,-1.37
3.888,0.23,0.41,0.35,-1.98,-1.43,-1.37
3.891,0.23,0.41,0.35,-1.95,-1.77,-1.48
3.893,0.24,0.34,0.34,-1.95,-1.77,-1.48
3.896,0.24,0.34,0.34,-1.87,-2.08,-1.56
3.897,0.24,0.29,0.31,-1.87,-2.08,-1.56
3.901,0.24,0.23,0.29,-1.87,-2.08,-1.56
3.902,0.24,0.23,0.29,-1.66,-2.25,-1.59
3.918,0.24,0.23,0.29,-1.30,-2.36,-1.53
3.919,0.22,0.16,0.25,-1.30,-2.36,-1.53
3.92,0.21,0.06,0.21,-1.30,-2.36,-1.53
3.925,0.21,0.06,0.21,-0.80,-2.25,-1.42
3.926,0.19,-0.03,0.18,-0.80,-2.25,-1.42
3.927,0.19,-0.03,0.18,-0.21,-2.00,-1.40
3.928,0.17,-0.10,0.13,-0.21,-2.00,-1.40
3.929,0.17,-0.10,0.13,0.30,-1.63,-1.44
3.93,0.16,-0.13,0.10,0.30,-1.63,-1.44
3.932,0.16,-0.13,0.10,0.75,-1.18,-1.56
3.933,0.15,-0.11,0.07,0.75,-1.18,-1.56
3.934,0.15,-0.11,0.07,1.15,-0.75,-1.67
3.94,0.13,-0.05,0.05,1.15,-0.75,-1.67
3.942,0.13,-0.05,0.05,1.39,-0.43,-1.80
3.943,0.11,0.03,0.03,1.39,-0.43,-1.80
3.944,0.11,0.03,0.03,1.46,-0.18,-1.85
3.947,0.11,0.03,0.03,1.36,0.05,-1.82
3.948,0.09,0.12,0.03,1.36,0.05,-1.82
3.951,0.09,0.21,0.04,1.36,0.05,-1.82
3.952,0.09,0.21,0.04,1.16,0.24,-1.87
3.957,0.08,0.29,0.06,1.16,0.24,-1.87
3.959,0.08,0.29,0.06,0.83,0.36,-1.92
3.961,0.08,0.36,0.09,0.83,0.36,-1.92
3.962,0.08,0.36,0.09,0.54,0.53,-2.01
3.966,0.08,0.39,0.12,0.54,0.53,-2.01
3.967,0.08,0.39,0.12,0.28,0.62,-2.07
3.972,0.08,0.39,0.12,0.13,0.61,-2.03
3.973,0.08,0.41,0.16,0.13,0.61,-2.03
3.976,0.06,0.42,0.19,0.13,0.61,-2.03
3.977,0.06,0.42,0.19,-0.01,0.66,-2.00
3.981,0.06,0.42,0.19,-0.02,0.68,-1.87
3.982,0.04,0.45,0.23,-0.02,0.68,-1.87
3.986,0.04,0.45,0.23,-0.03,0.67,-1.76
3.987,0.00,0.47,0.27,-0.03,0.67,-1.76
3.991,-0.04,0.46,0.29,-0.03,0.67,-1.76
3.993,-0.04,0.46,0.29,-0.06,0.66,-1.52
3.996,-0.04,0.46,0.29,-0.07,0.65,-1.24
3.997,-0.09,0.44,0.31,-0.07,0.65,-1.24
4.001,-0.13,0.41,0.33,-0.07,0.65,-1.24
4.002,-0.13,0.41,0.33,-0.13,0.63,-1.02
4.011,-0.16,0.37,0.35,-0.13,0.63,-1.02
4.012,-0.16,0.37,0.35,-0.14,0.56,-0.86
4.015,-0.19,0.34,0.36,-0.14,0.56,-0.86
4.016,-0.19,0.34,0.36,-0.22,0.52,-0.83
4.017,-0.21,0.32,0.36,-0.22,0.52,-0.83
4.018,-0.21,0.32,0.36,-0.28,0.44,-0.86
4.024,-0.24,0.29,0.36,-0.28,0.44,-0.86
4.026,-0.24,0.29,0.36,-0.32,0.40,-0.86
4.027,-0.27,0.28,0.36,-0.32,0.40,-0.86
4.028,-0.27,0.28,0.36,-0.41,0.33,-0.92
4.032,-0.27,0.28,0.36,-0.51,0.21,-0.86
4.033,-0.30,0.27,0.36,-0.51,0.21,-0.86
4.04,-0.30,0.27,0.36,-0.60,0.14,-0.83
4.041,-0.32,0.25,0.35,-0.60,0.14,-0.83
4.042,-0.32,0.25,0.35,-0.71,0.05,-0.78
4.043,-0.35,0.23,0.35,-0.71,0.05,-0.78
4.047,-0.35,0.23,0.35,-0.84,-0.06,-0.80
4.048,-0.36,0.21,0.34,-0.84,-0.06,-0.80
4.052,-0.36,0.21,0.34,-0.99,-0.24,-0.81
4.053,-0.38,0.19,0.34,-0.99,-0.24,-0.81
4.062,-0.39,0.16,0.33,-0.99,-0.24,-0.81
4.063,-0.39,0.16,0.33,-1.02,-0.38,-0.79
4.064,-0.40,0.14,0.33,-1.02,-0.38,-0.79
4.065,-0.40,0.14,0.33,-1.10,-0.47,-0.77
4.067,-0.40,0.14,0.33,-1.22,-0.58,-0.76
4.069,-0.40,0.11,0.32,-1.22,-0.58,-0.76
4.078,-0.41,0.09,0.31,-1.22,-0.58,-0.76
4.08,-0.41,0.09,0.31,-1.40,-0.67,-0.71
4.081,-0.41,0.09,0.31,-1.44,-0.75,-0.64
4.081,-0.41,0.07,0.31,-1.44,-0.75,-0.64
4.082,-0.41,0.07,0.31,-1.44,-0.83,-0.54
4.083,-0.40,0.04,0.31,-1.44,-0.83,-0.54
4.089,-0.40,0.04,0.31,-1.39,-0.88,-0.49
4.09,-0.40,0.01,0.31,-1.39,-0.88,-0.49
4.093,-0.39,-0.01,0.30,-1.39,-0.88,-0.49
4.093,-0.39,-0.01,0.30,-1.36,-0.89,-0.43
4.097,-0.39,-0.01,0.30,-1.28,-0.90,-0.35
4.098,-0.38,-0.04,0.29,-1.28,-0.90,-0.35
4.102,-0.37,-0.08,0.28,-1.28,-0.90,-0.35
4.103,-0.37,-0.08,0.28,-1.25,-0.93,-0.29
4.107,-0.37,-0.08,0.28,-1.14,-0.90,-0.28
4.109,-0.35,-0.12,0.27,-1.14,-0.90,-0.28
4.112,-0.34,-0.15,0.26,-1.14,-0.90,-0.28
4.113,-0.34,-0.15,0.26,-0.98,-0.86,-0.30
4.117,-0.34,-0.15,0.26,-0.82,-0.79,-0.34
4.118,-0.32,-0.17,0.24,-0.82,-0.79,-0.34
4.123,-0.32,-0.17,0.24,-0.69,-0.68,-0.40
4.124,-0.31,-0.20,0.23,-0.69,-0.68,-0.40
4.128,-0.30,-0.22,0.21,-0.69,-0.68,-0.40
4.128,-0.30,-0.22,0.21,-0.58,-0.62,-0.47
4.132,-0.29,-0.22,0.19,-0.58,-0.62,-0.47
4.133,-0.29,-0.22,0.19,-0.45,-0.52,-0.52
4.139,-0.29,-0.22,0.17,-0.45,-0.52,-0.52
4.142,-0.29,-0.22,0.17,-0.30,-0.42,-0.52
4.143,-0.28,-0.21,0.15,-0.30,-0.42,-0.52
4.144,-0.28,-0.21,0.15,-0.20,-0.30,-0.50
4.148,-0.28,-0.20,0.12,-0.20,-0.30,-0.50
4.149,-0.28,-0.20,0.12,-0.17,-0.21,-0.49
4.153,-0.29,-0.20,0.10,-0.17,-0.21,-0.49
4.154,-0.29,-0.20,0.10,-0.20,-0.16,-0.47
4.158,-0.29,-0.20,0.08,-0.20,-0.16,-0.47
4.16,-0.29,-0.20,0.08,-0.26,-0.09,-0.47
4.163,-0.30,-0.19,0.07,-0.26,-0.09,-0.47
4.163,-0.30,-0.19,0.07,-0.30,-0.10,-0.37
4.168,-0.30,-0.18,0.06,-0.30,-0.10,-0.37
4.169,-0.30,-0.18,0.06,-0.32,-0.09,-0.33
4.179,-0.30,-0.17,0.05,-0.32,-0.09,-0.33
4.18,-0.30,-0.17,0.05,-0.32,-0.10,-0.26
4.181,-0.30,-0.17,0.05,-0.37,-0.13,-0.17
4.182,-0.30,-0.15,0.04,-0.37,-0.13,-0.17
4.188,-0.30,-0.15,0.03,-0.37,-0.13,-0.17
4.189,-0.30,-0.14,0.02,-0.37,-0.13,-0.17
4.19,-0.30,-0.14,0.02,-0.44,-0.14,-0.16
4.194,-0.30,-0.14,0.02,-0.50,-0.22,-0.07
4.195,-0.30,-0.15,0.01,-0.50,-0.22,-0.07
4.196,-0.30,-0.15,0.01,-0.55,-0.20,0.05
4.198,-0.30,-0.16,-0.00,-0.55,-0.20,0.05
4.199,-0.30,-0.16,-0.00,-0.59,-0.24,0.07
4.203,-0.30,-0.16,-0.00,-0.60,-0.22,0.05
4.205,-0.31,-0.17,-0.01,-0.60,-0.22,0.05
4.209,-0.32,-0.19,-0.02,-0.60,-0.22,0.05
4.21,-0.32,-0.19,-0.02,-0.54,-0.26,0.16
4.213,-0.32,-0.19,-0.02,-0.48,-0.24,0.17
4.214,-0.32,-0.21,-0.04,-0.48,-0.24,0.17
4.218,-0.32,-0.21,-0.04,-0.45,-0.22,0.23
4.219,-0.33,-0.22,-0.06,-0.45,-0.22,0.23
4.224,-0.33,-0.22,-0.06,-0.40,-0.19,0.26
4.225,-0.33,-0.23,-0.07,-0.40,-0.19,0.26
4.229,-0.33,-0.23,-0.07,-0.36,-0.17,0.31
4.23,-0.34,-0.24,-0.09,-0.36,-0.17,0.31
4.233,-0.34,-0.26,-0.10,-0.36,-0.17,0.31
4.234,-0.34,-0.26,-0.10,-0.25,-0.07,0.32
4.239,-0.35,-0.28,-0.11,-0.25,-0.07,0.32
4.241,-0.35,-0.28,-0.11,-0.19,0.04,0.24
4.243,-0.36,-0.31,-0.11,-0.19,0.04,0.24
4.244,-0.36,-0.31,-0.11,-0.10,0.03,0.13
4.25,-0.36,-0.31,-0.11,-0.00,-0.00,0.05
4.251,-0.37,-0.33,-0.12,-0.00,-0.00,0.05
4.253,-0.37,-0.33,-0.12,0.17,0.02,0.11
4.254,-0.38,-0.34,-0.12,0.17,0.02,0.11
4.264,-0.38,-0.34,-0.12,0.36,0.05,0.14
4.265,-0.38,-0.35,-0.12,0.36,0.05,0.14
4.268,-0.38,-0.35,-0.12,0.50,0.04,0.10
4.269,-0.38,-0.35,-0.12,0.50,0.04,0.10
4.27,-0.38,-0.33,-0.12,0.50,0.04,0.10
4.271,-0.38,-0.33,-0.12,0.67,-0.00,0.07
4.273,-0.38,-0.33,-0.12,0.81,-0.05,0.00
4.275,-0.38,-0.30,-0.12,0.81,-0.05,0.00
4.278,-0.38,-0.26,-0.12,0.81,-0.05,0.00
4.279,-0.38,-0.26,-0.12,0.85,-0.06,-0.07
4.284,-0.38,-0.26,-0.12,0.88,-0.10,-0.06
4.284,-0.38,-0.21,-0.12,0.88,-0.10,-0.06
4.289,-0.38,-0.21,-0.12,0.84,-0.10,-0.02
4.29,-0.39,-0.16,-0.12,0.84,-0.10,-0.02
4.293,-0.39,-0.13,-0.11,0.84,-0.10,-0.02
4.294,-0.39,-0.13,-0.11,0.84,-0.08,0.01
4.298,-0.39,-0.13,-0.11,0.83,-0.03,0.03
4.299,-0.40,-0.10,-0.09,0.83,-0.03,0.03
4.303,-0.40,-0.10,-0.09,0.83,-0.01,0.02
4.304,-0.41,-0.09,-0.08,0.83,-0.01,0.02
4.313,-0.41,-0.09,-0.08,0.82,0.01,-0.03
4.314,-0.43,-0.06,-0.06,0.82,0.01,-0.03
4.315,-0.46,-0.03,-0.05,0.82,0.01,-0.03
4.317,-0.46,-0.03,-0.05,0.89,0.09,0.03
4.33,-0.48,-0.00,-0.04,0.89,0.09,0.03
4.332,-0.48,-0.00,-0.04,0.92,0.16,0.09
4.333,-0.48,-0.00,-0.04,0.91,0.18,0.14
4.334,-0.51,0.03,-0.04,0.91,0.18,0.14
4.335,-0.54,0.05,-0.04,0.91,0.18,0.14
4.335,-0.54,0.05,-0.04,0.93,0.16,0.15
4.336,-0.54,0.05,-0.04,0.92,0.24,0.24
4.337,-0.58,0.08,-0.05,0.92,0.24,0.24
4.34,-0.58,0.08,-0.05,0.85,0.33,0.42
4.342,-0.61,0.12,-0.06,0.85,0.33,0.42
4.344,-0.65,0.16,-0.07,0.85,0.33,0.42
4.345,-0.65,0.16,-0.07,0.73,0.41,0.51
4.349,-0.69,0.19,-0.08,0.73,0.41,0.51
4.35,-0.69,0.19,-0.08,0.54,0.49,0.70
4.355,-0.73,0.21,-0.09,0.54,0.49,0.70
4.357,-0.73,0.21,-0.09,0.39,0.51,1.00
4.359,-0.76,0.21,-0.10,0.39,0.51,1.00
4.36,-0.76,0.21,-0.10,0.23,0.47,1.27
4.364,-0.79,0.19,-0.11,0.23,0.47,1.27
4.365,-0.79,0.19,-0.11,0.08,0.46,1.46
4.369,-0.79,0.19,-0.11,0.01,0.42,1.58
4.37,-0.82,0.17,-0.12,0.01,0.42,1.58
4.374,-0.82,0.17,-0.12,0.00,0.38,1.66
4.376,-0.85,0.13,-0.13,0.00,0.38,1.66
4.379,-0.87,0.08,-0.14,0.00,0.38,1.66
4.38,-0.87,0.08,-0.14,0.06,0.32,1.75
4.384,-0.87,0.08,-0.14,0.15,0.25,1.82
4.385,-0.90,0.01,-0.15,0.15,0.25,1.82
4.39,-0.90,0.01,-0.15,0.36,0.28,1.80
4.392,-0.91,-0.09,-0.15,0.36,0.28,1.80
4.394,-0.91,-0.09,-0.15,0.70,0.26,1.61
4.395,-0.92,-0.21,-0.14,0.70,0.26,1.61
4.399,-0.91,-0.34,-0.11,0.70,0.26,1.61
4.4,-0.91,-0.34,-0.11,1.13,0.20,1.29
4.406,-0.91,-0.34,-0.11,1.61,-0.03,0.78
4.408,-0.90,-0.44,-0.08,1.61,-0.03,0.78
4.409,-0.90,-0.44,-0.08,2.17,-0.33,0.35
4.41,-0.89,-0.49,-0.04,2.17,-0.33,0.35
4.414,-0.89,-0.49,-0.04,2.68,-0.61,0.21
4.415,-0.86,-0.48,-0.01,2.68,-0.61,0.21
4.419,-0.82,-0.40,0.03,2.68,-0.61,0.21
4.42,-0.82,-0.40,0.03,3.06,-0.91,0.19
4.425,-0.78,-0.27,0.06,3.06,-0.91,0.19
4.426,-0.78,-0.27,0.06,3.35,-1.18,0.20
4.43,-0.78,-0.27,0.06,3.47,-1.43,0.21
4.431,-0.73,-0.14,0.08,3.47,-1.43,0.21
4.434,-0.73,-0.14,0.08,3.38,-1.65,0.17
4.435,-0.66,-0.03,0.10,3.38,-1.65,0.17
4.446,-0.59,0.05,0.11,3.38,-1.65,0.17
4.448,-0.59,0.05,0.11,3.16,-1.78,0.01
4.448,-0.52,0.13,0.12,3.16,-1.78,0.01
4.449,-0.52,0.13,0.12,2.79,-1.87,-0.28
4.453,-0.52,0.13,0.12,2.37,-1.89,-0.52
4.454,-0.45,0.21,0.11,2.37,-1.89,-0.52
4.457,-0.45,0.21,0.11,1.99,-1.97,-0.74
4.458,-0.38,0.29,0.11,1.99,-1.97,-0.74
4.47,-0.38,0.29,0.11,1.65,-2.00,-0.96
4.471,-0.33,0.36,0.11,1.65,-2.00,-0.96
4.472,-0.31,0.40,0.10,1.65,-2.00,-0.96
4.473,-0.31,0.40,0.10,1.43,-1.96,-1.08
4.474,-0.31,0.40,0.10,1.21,-1.87,-1.07
4.475,-0.30,0.42,0.08,1.21,-1.87,-1.07
4.476,-0.31,0.42,0.06,1.21,-1.87,-1.07
4.477,-0.31,0.42,0.06,1.00,-1.77,-1.12
4.48,-0.32,0.41,0.02,1.00,-1.77,-1.12
4.481,-0.32,0.41,0.02,0.72,-1.59,-1.22
4.485,-0.33,0.42,-0.02,0.72,-1.59,-1.22
4.486,-0.33,0.42,-0.02,0.40,-1.37,-1.37
4.49,-0.33,0.42,-0.02,0.03,-1.09,-1.53
4.491,-0.36,0.45,-0.07,0.03,-1.09,-1.53
4.496,-0.40,0.48,-0.12,0.03,-1.09,-1.53
4.496,-0.40,0.48,-0.12,-0.25,-0.82,-1.55
4.5,-0.40,0.48,-0.12,-0.64,-0.55,-1.43
4.501,-0.43,0.50,-0.17,-0.64,-0.55,-1.43
4.505,-0.43,0.50,-0.17,-1.03,-0.13,-1.37
4.508,-0.47,0.51,-0.22,-1.03,-0.13,-1.37
4.517,-0.47,0.51,-0.22,-1.44,0.18,-1.41
4.518,-0.50,0.49,-0.26,-1.44,0.18,-1.41
4.518,-0.52,0.45,-0.30,-1.44,0.18,-1.41
4.521,-0.52,0.45,-0.30,-1.86,0.47,-1.59
4.523,-0.52,0.45,-0.30,-2.14,0.80,-1.79
4.524,-0.55,0.39,-0.33,-2.14,0.80,-1.79
4.526,-0.55,0.39,-0.33,-2.40,1.15,-1.89
4.527,-0.58,0.33,-0.34,-2.40,1.15,-1.89
4.531,-0.58,0.33,-0.34,-2.67,1.50,-1.93
4.532,-0.61,0.27,-0.35,-2.67,1.50,-1.93
4.536,-0.63,0.21,-0.35,-2.67,1.50,-1.93
4.537,-0.63,0.21,-0.35,-2.89,1.80,-1.89
4.541,-0.63,0.21,-0.35,-3.05,2.05,-1.84
4.542,-0.64,0.14,-0.34,-3.05,2.05,-1.84
4.546,-0.64,0.14,-0.34,-3.06,2.24,-1.71
4.547,-0.65,0.06,-0.31,-3.06,2.24,-1.71
4.55,-0.65,0.06,-0.31,-2.91,2.40,-1.58
4.551,-0.64,-0.03,-0.27,-2.91,2.40,-1.58
4.562,-0.64,-0.03,-0.27,-2.57,2.37,-1.47
4.563,-0.64,-0.14,-0.23,-2.57,2.37,-1.47
4.563,-0.64,-0.14,-0.23,-2.13,2.19,-1.35
4.565,-0.63,-0.26,-0.18,-2.13,2.19,-1.35
4.568,-0.61,-0.36,-0.13,-2.13,2.19,-1.35
4.569,-0.61,-0.36,-0.13,-1.61,1.91,-1.29
4.579,-0.59,-0.43,-0.09,-1.61,1.91,-1.29
4.58,-0.59,-0.43,-0.09,-0.96,1.65,-1.25
4.581,-0.59,-0.43,-0.09,-0.26,1.35,-1.23
4.582,-0.56,-0.45,-0.05,-0.26,1.35,-1.23
4.583,-0.54,-0.43,-0.03,-0.26,1.35,-1.23
4.584,-0.54,-0.43,-0.03,0.26,1.05,-1.17
4.586,-0.54,-0.43,-0.03,0.69,0.73,-1.05
4.586,-0.51,-0.38,-0.02,0.69,0.73,-1.05
4.59,-0.49,-0.32,-0.00,0.69,0.73,-1.05
4.592,-0.49,-0.32,-0.00,1.06,0.47,-0.95
4.596,-0.47,-0.26,-0.00,1.06,0.47,-0.95
4.597,-0.47,-0.26,-0.00,1.29,0.29,-0.89
4.601,-0.47,-0.26,-0.00,1.42,0.15,-0.89
4.602,-0.44,-0.19,-0.00,1.42,0.15,-0.89
4.606,-0.42,-0.13,-0.01,1.42,0.15,-0.89
4.608,-0.42,-0.13,-0.01,1.56,-0.01,-0.98
4.61,-0.42,-0.13,-0.01,1.63,-0.14,-1.12
4.611,-0.41,-0.07,-0.03,1.63,-0.14,-1.12
4.616,-0.41,-0.07,-0.03,1.61,-0.15,-1.16
4.617,-0.40,-0.02,-0.05,1.61,-0.15,-1.16
4.622,-0.40,-0.02,-0.05,1.46,-0.14,-1.10
4.624,-0.39,0.03,-0.09,1.46,-0.14,-1.10
4.626,-0.38,0.09,-0.11,1.46,-0.14,-1.10
4.627,-0.38,0.09,-0.11,1.20,-0.24,-1.06
4.631,-0.37,0.16,-0.13,1.20,-0.24,-1.06
4.632,-0.37,0.16,-0.13,1.03,-0.43,-0.87
4.636,-0.36,0.21,-0.17,1.03,-0.43,-0.87
4.637,-0.36,0.21,-0.17,1.14,-0.61,-0.50
4.641,-0.36,0.21,-0.17,1.13,-0.67,-0.12
4.643,-0.34,0.25,-0.21,1.13,-0.67,-0.12
4.646,-0.34,0.25,-0.21,0.86,-0.61,0.15
4.647,-0.31,0.24,-0.27,0.86,-0.61,0.15
4.651,-0.28,0.21,-0.33,0.86,-0.61,0.15
4.652,-0.28,0.21,-0.33,0.46,-0.52,0.32
4.657,-0.28,0.21,-0.33,0.11,-0.48,0.39
4.658,-0.24,0.16,-0.37,0.11,-0.48,0.39
4.661,-0.24,0.16,-0.37,-0.11,-0.37,0.38
4.662,-0.20,0.12,-0.40,-0.11,-0.37,0.38
4.666,-0.16,0.09,-0.41,-0.11,-0.37,0.38
4.668,-0.16,0.09,-0.41,-0.25,-0.30,0.23
4.672,-0.13,0.08,-0.41,-0.25,-0.30,0.23
4.674,-0.13,0.08,-0.41,-0.45,-0.21,0.08
4.676,-0.13,0.08,-0.41,-0.57,-0.14,-0.01
4.677,-0.10,0.08,-0.41,-0.57,-0.14,-0.01
4.681,-0.10,0.08,-0.41,-0.66,-0.04,-0.01
4.682,-0.07,0.08,-0.40,-0.66,-0.04,-0.01
4.689,-0.04,0.06,-0.39,-0.66,-0.04,-0.01
4.692,-0.04,0.06,-0.39,-0.75,0.07,-0.01
4.693,-0.04,0.06,-0.39,-0.85,0.15,-0.05
4.694,-0.00,0.06,-0.38,-0.85,0.15,-0.05
4.697,-0.00,0.06,-0.38,-0.92,0.27,-0.07
4.697,0.03,0.05,-0.37,-0.92,0.27,-0.07
4.702,0.03,0.05,-0.37,-1.07,0.39,-0.19
4.703,0.05,0.04,-0.36,-1.07,0.39,-0.19
4.713,0.05,0.04,-0.36,-1.19,0.49,-0.30
4.723,0.06,0.03,-0.35,-1.19,0.49,-0.30
4.725,0.07,0.02,-0.35,-1.19,0.49,-0.30
4.726,0.07,0.02,-0.35,-1.35,0.61,-0.33
4.727,0.07,0.02,-0.35,-1.44,0.73,-0.39
4.728,0.06,-0.00,-0.35,-1.44,0.73,-0.39
4.729,0.05,-0.04,-0.35,-1.44,0.73,-0.39
4.73,0.05,-0.04,-0.35,-1.57,0.87,-0.43
4.731,0.05,-0.04,-0.35,-1.64,0.98,-0.43
4.732,0.04,-0.09,-0.35,-1.64,0.98,-0.43
4.733,0.04,-0.09,-0.35,-1.65,1.16,-0.44
4.734,0.02,-0.15,-0.34,-1.65,1.16,-0.44
4.737,0.02,-0.15,-0.34,-1.61,1.35,-0.42
4.739,0.01,-0.20,-0.34,-1.61,1.35,-0.42
4.743,0.01,-0.20,-0.34,-1.49,1.44,-0.36
4.744,-0.01,-0.26,-0.34,-1.49,1.44,-0.36
4.747,-0.04,-0.32,-0.33,-1.49,1.44,-0.36
4.748,-0.04,-0.32,-0.33,-1.39,1.51,-0.32
4.752,-0.06,-0.36,-0.31,-1.39,1.51,-0.32
4.753,-0.06,-0.36,-0.31,-1.28,1.56,-0.31
4.758,-0.08,-0.38,-0.29,-1.28,1.56,-0.31
4.759,-0.08,-0.38,-0.29,-1.15,1.52,-0.30
4.769,-0.10,-0.39,-0.27,-1.15,1.52,-0.30
4.77,-0.10,-0.39,-0.27,-0.96,1.49,-0.29
4.773,-0.12,-0.39,-0.24,-0.96,1.49,-0.29
4.775,-0.12,-0.39,-0.24,-0.73,1.42,-0.34
4.776,-0.14,-0.38,-0.22,-0.73,1.42,-0.34
4.777,-0.14,-0.38,-0.22,-0.48,1.33,-0.39
4.778,-0.16,-0.36,-0.21,-0.48,1.33,-0.39
4.779,-0.16,-0.36,-0.21,-0.28,1.20,-0.38
4.782,-0.16,-0.36,-0.21,-0.13,1.07,-0.40
4.784,-0.17,-0.33,-0.20,-0.13,1.07,-0.40
4.787,-0.17,-0.33,-0.20,-0.08,0.99,-0.35
4.788,-0.19,-0.30,-0.19,-0.08,0.99,-0.35
4.792,-0.19,-0.30,-0.19,-0.12,0.89,-0.35
4.794,-0.21,-0.26,-0.18,-0.12,0.89,-0.35
4.797,-0.21,-0.26,-0.18,-0.19,0.84,-0.32
4.798,-0.22,-0.23,-0.17,-0.19,0.84,-0.32
4.802,-0.22,-0.23,-0.17,-0.27,0.80,-0.20
4.803,-0.23,-0.21,-0.17,-0.27,0.80,-0.20
4.807,-0.23,-0.21,-0.17,-0.35,0.74,-0.08
4.809,-0.24,-0.19,-0.15,-0.35,0.74,-0.08
4.812,-0.24,-0.19,-0.15,-0.42,0.70,-0.01
4.813,-0.25,-0.18,-0.14,-0.42,0.70,-0.01
4.817,-0.26,-0.17,-0.13,-0.42,0.70,-0.01
4.818,-0.26,-0.17,-0.13,-0.48,0.66,0.06
4.823,-0.27,-0.17,-0.12,-0.48,0.66,0.06
4.824,-0.27,-0.17,-0.12,-0.53,0.60,0.20
4.827,-0.27,-0.17,-0.11,-0.53,0.60,0.20
4.828,-0.27,-0.17,-0.11,-0.56,0.57,0.28
4.832,-0.27,-0.17,-0.11,-0.62,0.54,0.33
4.833,-0.27,-0.17,-0.10,-0.62,0.54,0.33
4.845,-0.27,-0.17,-0.10,-0.65,0.48,0.42
4.847,-0.27,-0.18,-0.10,-0.65,0.48,0.42
4.848,-0.27,-0.18,-0.10,-0.70,0.44,0.53
4.849,-0.27,-0.19,-0.09,-0.70,0.44,0.53
4.85,-0.26,-0.21,-0.08,-0.70,0.44,0.53
4.851,-0.26,-0.21,-0.08,-0.68,0.36,0.56
4.853,-0.25,-0.23,-0.08,-0.68,0.36,0.56
4.854,-0.25,-0.23,-0.08,-0.71,0.32,0.53
4.866,-0.24,-0.26,-0.07,-0.71,0.32,0.53
4.867,-0.24,-0.26,-0.07,-0.75,0.30,0.53
4.868,-0.24,-0.26,-0.07,-0.75,0.28,0.60
4.869,-0.22,-0.27,-0.06,-0.75,0.28,0.60
4.87,-0.21,-0.27,-0.05,-0.75,0.28,0.60
4.871,-0.21,-0.27,-0.05,-0.74,0.16,0.70
4.874,-0.20,-0.26,-0.03,-0.74,0.16,0.70
4.875,-0.20,-0.26,-0.03,-0.70,0.11,0.85
4.878,-0.18,-0.25,-0.01,-0.70,0.11,0.85
4.879,-0.18,-0.25,-0.01,-0.68,0.05,1.01
4.883,-0.18,-0.25,-0.01,-0.59,0.02,1.18
4.884,-0.17,-0.25,0.00,-0.59,0.02,1.18
4.889,-0.15,-0.25,0.01,-0.59,0.02,1.18
4.891,-0.15,-0.25,0.01,-0.46,-0.04,1.33
4.893,-0.12,-0.26,0.02,-0.46,-0.04,1.33
4.894,-0.12,-0.26,0.02,-0.35,-0.08,1.35
4.898,-0.10,-0.26,0.03,-0.35,-0.08,1.35
4.899,-0.10,-0.26,0.03,-0.23,-0.05,1.41
4.904,-0.08,-0.26,0.03,-0.23,-0.05,1.41
4.905,-0.08,-0.26,0.03,-0.08,0.03,1.46
4.908,-0.08,-0.26,0.03,0.08,0.14,1.44
4.91,-0.06,-0.25,0.03,0.08,0.14,1.44
4.913,-0.04,-0.25,0.03,0.08,0.14,1.44
4.914,-0.04,-0.25,0.03,0.18,0.13,1.48
4.918,-0.04,-0.25,0.03,0.25,0.12,1.48
4.919,-0.03,-0.24,0.03,0.25,0.12,1.48
4.924,-0.01,-0.22,0.03,0.25,0.12,1.48
4.926,-0.01,-0.22,0.03,0.33,0.13,1.54
4.928,0.00,-0.20,0.03,0.33,0.13,1.54
4.929,0.00,-0.20,0.03,0.40,0.11,1.52
4.933,0.00,-0.20,0.03,0.37,0.05,1.54
4.934,0.02,-0.17,0.03,0.37,0.05,1.54
4.939,0.04,-0.14,0.03,0.37,0.05,1.54
4.941,0.04,-0.14,0.03,0.33,0.01,1.49
4.944,0.06,-0.10,0.03,0.33,0.01,1.49
4.944,0.06,-0.10,0.03,0.32,0.05,1.41
4.948,0.08,-0.06,0.04,0.32,0.05,1.41
4.949,0.08,-0.06,0.04,0.28,0.01,1.35
4.953,0.08,-0.06,0.04,0.25,-0.01,1.32
4.954,0.09,-0.04,0.04,0.25,-0.01,1.32
4.958,0.09,-0.04,0.04,0.24,0.00,1.29
4.96,0.11,-0.01,0.05,0.24,0.00,1.29
4.963,0.11,-0.01,0.05,0.18,0.07,1.21
4.964,0.11,0.01,0.05,0.18,0.07,1.21
4.968,0.11,0.01,0.05,0.15,0.13,1.17
4.969,0.12,0.03,0.05,0.15,0.13,1.17
4.983,0.12,0.04,0.05,0.15,0.13,1.17
4.985,0.12,0.04,0.05,0.11,0.24,1.19
4.989,0.12,0.04,0.05,0.02,0.36,1.26
4.992,0.13,0.04,0.05,0.02,0.36,1.26
4.992,0.14,0.05,0.05,0.02,0.36,1.26
4.993,0.14,0.05,0.05,-0.05,0.40,1.38
4.994,0.14,0.05,0.05,-0.13,0.45,1.43
4.995,0.16,0.06,0.05,-0.13,0.45,1.43
4.996,0.18,0.07,0.06,-0.13,0.45,1.43
4.997,0.18,0.07,0.06,-0.12,0.54,1.46
5.002,0.18,0.07,0.06,-0.11,0.61,1.41
5.005,0.19,0.07,0.07,-0.11,0.61,1.41
5.006,0.19,0.07,0.07,-0.09,0.68,1.30
5.007,0.19,0.06,0.07,-0.09,0.68,1.30
5.009,0.18,0.04,0.07,-0.09,0.68,1.30
5.01,0.18,0.04,0.07,0.03,0.76,1.30
5.018,0.18,0.04,0.07,0.38,0.91,1.23
5.019,0.18,-0.02,0.07,0.38,0.91,1.23
5.022,0.18,-0.02,0.07,0.76,1.02,1.03
5.023,0.18,-0.10,0.05,0.76,1.02,1.03
5.025,0.17,-0.20,0.03,0.76,1.02,1.03
5.026,0.17,-0.20,0.03,1.28,1.12,0.76
5.029,0.17,-0.31,-0.00,1.28,1.12,0.76
5.031,0.17,-0.31,-0.00,1.97,1.23,0.36
5.034,0.17,-0.31,-0.00,2.62,1.29,-0.10
5.035,0.16,-0.43,-0.05,2.62,1.29,-0.10
5.041,0.14,-0.52,-0.10,2.62,1.29,-0.10
5.043,0.14,-0.52,-0.10,3.06,1.33,-0.51
5.044,0.12,-0.56,-0.15,3.06,1.33,-0.51
5.045,0.12,-0.56,-0.15,3.30,1.27,-0.94
5.049,0.12,-0.56,-0.15,3.53,1.27,-1.12
5.05,0.10,-0.54,-0.19,3.53,1.27,-1.12
5.055,0.10,-0.54,-0.19,3.78,1.42,-0.99
5.057,0.08,-0.45,-0.22,3.78,1.42,-0.99
5.059,0.06,-0.29,-0.24,3.78,1.42,-0.99
5.06,0.06,-0.29,-0.24,3.85,1.56,-0.83
5.064,0.04,-0.09,-0.23,3.85,1.56,-0.83
5.065,0.04,-0.09,-0.23,3.63,1.71,-0.73
5.069,0.04,-0.09,-0.23,3.04,1.79,-0.87
5.07,0.01,0.13,-0.21,3.04,1.79,-0.87
5.074,-0.03,0.32,-0.15,3.04,1.79,-0.87
5.076,-0.03,0.32,-0.15,2.20,1.78,-1.02
5.079,-0.08,0.48,-0.08,2.20,1.78,-1.02
5.08,-0.08,0.48,-0.08,1.43,1.76,-1.07
5.084,-0.08,0.48,-0.08,0.86,1.51,-0.90
5.085,-0.12,0.58,-0.00,0.86,1.51,-0.90
5.089,-0.12,0.58,-0.00,0.43,1.28,-0.60
5.092,-0.15,0.63,0.06,0.43,1.28,-0.60
5.094,-0.15,0.63,0.06,0.12,1.06,-0.19
5.095,-0.16,0.62,0.12,0.12,1.06,-0.19
5.1,-0.15,0.56,0.16,0.12,1.06,-0.19
5.101,-0.15,0.56,0.16,-0.03,0.81,0.18
5.113,-0.15,0.56,0.16,-0.06,0.58,0.36
5.114,-0.12,0.49,0.20,-0.06,0.58,0.36
5.116,-0.12,0.49,0.20,0.06,0.39,0.38
5.117,-0.08,0.42,0.23,0.06,0.39,0.38
5.119,-0.06,0.37,0.24,0.06,0.39,0.38
5.12,-0.06,0.37,0.24,0.31,0.23,0.25
5.12,-0.06,0.37,0.24,0.48,0.10,0.07
5.122,-0.04,0.34,0.24,0.48,0.10,0.07
5.135,-0.04,0.34,0.24,0.55,0.05,-0.12
5.136,-0.05,0.32,0.23,0.55,0.05,-0.12
5.138,-0.05,0.31,0.22,0.55,0.05,-0.12
5.139,-0.05,0.31,0.22,0.51,0.01,-0.29
5.139,-0.05,0.32,0.22,0.51,0.01,-0.29
5.141,-0.05,0.32,0.22,0.30,-0.03,-0.57
5.141,-0.06,0.34,0.22,0.30,-0.03,-0.57
5.142,-0.06,0.34,0.22,0.05,-0.07,-0.92
5.145,-0.06,0.36,0.22,0.05,-0.07,-0.92
5.146,-0.06,0.36,0.22,-0.24,-0.09,-1.20
5.15,-0.06,0.36,0.22,-0.59,-0.17,-1.49
5.15,-0.05,0.38,0.23,-0.59,-0.17,-1.49
5.155,-0.05,0.40,0.24,-0.59,-0.17,-1.49
5.157,-0.05,0.40,0.24,-1.01,-0.32,-1.70
5.16,-0.05,0.40,0.24,-1.37,-0.48,-1.80
5.16,-0.04,0.43,0.25,-1.37,-0.48,-1.80
5.165,-0.03,0.43,0.25,-1.37,-0.48,-1.80
5.166,-0.03,0.43,0.25,-1.65,-0.67,-1.84
5.17,-0.03,0.43,0.25,-1.84,-0.90,-1.89
5.171,-0.02,0.43,0.26,-1.84,-0.90,-1.89
5.175,-0.02,0.43,0.26,-1.92,-1.04,-1.93
5.176,-0.01,0.40,0.25,-1.92,-1.04,-1.93
5.18,-0.01,0.40,0.25,-1.93,-1.23,-1.94
5.181,-0.01,0.36,0.24,-1.93,-1.23,-1.94
5.185,-0.01,0.36,0.24,-1.94,-1.52,-1.93
5.186,-0.02,0.30,0.23,-1.94,-1.52,-1.93
5.19,-0.02,0.30,0.23,-1.77,-1.78,-1.87
5.192,-0.03,0.23,0.21,-1.77,-1.78,-1.87
5.195,-0.04,0.15,0.19,-1.77,-1.78,-1.87
5.196,-0.04,0.15,0.19,-1.37,-1.94,-1.77
5.2,-0.04,0.07,0.16,-1.37,-1.94,-1.77
5.201,-0.04,0.07,0.16,-0.92,-1.95,-1.67
5.206,-0.04,0.00,0.13,-0.92,-1.95,-1.67
5.208,-0.04,0.00,0.13,-0.44,-1.86,-1.59
5.21,-0.02,-0.05,0.10,-0.44,-1.86,-1.59
5.211,-0.02,-0.05,0.10,-0.02,-1.65,-1.56
5.215,-0.02,-0.05,0.10,0.31,-1.39,-1.64
5.216,-0.01,-0.06,0.08,0.31,-1.39,-1.64
5.223,-0.00,-0.03,0.07,0.31,-1.39,-1.64
5.224,-0.00,-0.03,0.07,0.59,-1.13,-1.74
5.225,-0.00,-0.03,0.07,0.83,-0.91,-1.78
5.226,0.00,0.03,0.07,0.83,-0.91,-1.78
5.23,-0.00,0.12,0.09,0.83,-0.91,-1.78
5.231,-0.00,0.12,0.09,0.96,-0.67,-1.78
5.235,-0.00,0.12,0.09,1.08,-0.41,-1.71
5.237,-0.01,0.22,0.11,1.08,-0.41,-1.71
5.241,-0.01,0.22,0.11,0.99,-0.10,-1.58
5.242,-0.02,0.31,0.12,0.99,-0.10,-1.58
5.245,-0.02,0.31,0.12,0.82,0.06,-1.46
5.246,-0.04,0.39,0.14,0.82,0.06,-1.46
5.251,-0.05,0.44,0.16,0.82,0.06,-1.46
5.251,-0.05,0.44,0.16,0.69,0.12,-1.33
5.265,-0.05,0.44,0.16,0.67,0.21,-1.30
5.267,-0.06,0.46,0.18,0.67,0.21,-1.30
5.268,-0.07,0.47,0.19,0.67,0.21,-1.30
5.269,-0.07,0.47,0.19,0.56,0.35,-1.31
5.288,-0.08,0.47,0.19,0.56,0.35,-1.31
5.29,-0.08,0.47,0.19,0.31,0.43,-1.33
5.291,-0.10,0.49,0.20,0.31,0.43,-1.33
5.294,-0.10,0.49,0.20,0.08,0.45,-1.34
5.295,-0.13,0.49,0.22,0.08,0.45,-1.34
5.296,-0.13,0.49,0.22,-0.11,0.47,-1.25
5.297,-0.16,0.48,0.24,-0.11,0.47,-1.25
5.298,-0.16,0.48,0.24,-0.28,0.44,-1.10
5.299,-0.16,0.48,0.24,-0.41,0.39,-0.96
5.3,-0.18,0.47,0.25,-0.41,0.39,-0.96
5.301,-0.19,0.44,0.26,-0.41,0.39,-0.96
5.302,-0.19,0.44,0.26,-0.57,0.32,-0.85
5.303,-0.20,0.40,0.26,-0.57,0.32,-0.85
5.303,-0.20,0.40,0.26,-0.73,0.23,-0.67
5.304,-0.21,0.36,0.26,-0.73,0.23,-0.67
5.305,-0.21,0.36,0.26,-0.90,0.16,-0.57
5.306,-0.21,0.36,0.26,-1.05,-0.01,-0.52
5.307,-0.22,0.32,0.26,-1.05,-0.01,-0.52
5.311,-0.22,0.32,0.26,-1.18,-0.16,-0.43
5.312,-0.23,0.27,0.25,-1.18,-0.16,-0.43
5.316,-0.23,0.27,0.25,-1.22,-0.30,-0.39
5.316,-0.23,0.21,0.25,-1.22,-0.30,-0.39
5.322,-0.23,0.14,0.26,-1.22,-0.30,-0.39
5.322,-0.23,0.14,0.26,-1.21,-0.39,-0.35
5.326,-0.23,0.14,0.26,-1.16,-0.47,-0.30
5.327,-0.24,0.09,0.25,-1.16,-0.47,-0.30
5.331,-0.24,0.09,0.25,-1.09,-0.55,-0.27
5.332,-0.24,0.04,0.25,-1.09,-0.55,-0.27
5.336,-0.24,0.04,0.25,-1.07,-0.67,-0.29
5.338,-0.24,-0.00,0.25,-1.07,-0.67,-0.29
5.341,-0.24,-0.00,0.25,-1.08,-0.76,-0.23
5.342,-0.24,-0.03,0.24,-1.08,-0.76,-0.23
5.346,-0.24,-0.03,0.24,-1.08,-0.82,-0.26
5.347,-0.24,-0.05,0.25,-1.08,-0.82,-0.26
5.351,-0.24,-0.05,0.25,-1.08,-0.97,-0.27
5.352,-0.24,-0.07,0.26,-1.08,-0.97,-0.27
5.358,-0.24,-0.07,0.26,-1.07,-1.08,-0.28
5.359,-0.24,-0.08,0.27,-1.07,-1.08,-0.28
5.361,-0.24,-0.08,0.27,-0.94,-1.15,-0.27
5.362,-0.23,-0.10,0.28,-0.94,-1.15,-0.27
5.366,-0.23,-0.10,0.28,-0.71,-1.18,-0.30
5.367,-0.23,-0.13,0.29,-0.71,-1.18,-0.30
5.372,-0.23,-0.13,0.29,-0.49,-1.23,-0.31
5.374,-0.22,-0.15,0.29,-0.49,-1.23,-0.31
5.376,-0.22,-0.15,0.29,-0.35,-1.28,-0.30
5.377,-0.21,-0.15,0.28,-0.35,-1.28,-0.30
5.381,-0.21,-0.15,0.28,-0.31,-1.26,-0.34
5.382,-0.19,-0.14,0.27,-0.31,-1.26,-0.34
5.386,-0.19,-0.14,0.27,-0.29,-1.21,-0.39
5.387,-0.18,-0.12,0.25,-0.29,-1.21,-0.39
5.391,-0.18,-0.12,0.25,-0.29,-1.14,-0.45
5.393,-0.17,-0.11,0.24,-0.29,-1.14,-0.45
5.397,-0.17,-0.11,0.22,-0.29,-1.14,-0.45
5.398,-0.17,-0.11,0.22,-0.35,-1.09,-0.40
5.401,-0.17,-0.11,0.21,-0.35,-1.09,-0.40
5.402,-0.17,-0.11,0.21,-0.37,-1.01,-0.37
5.416,-0.17,-0.11,0.21,-0.42,-0.92,-0.39
5.418,-0.16,-0.12,0.20,-0.42,-0.92,-0.39
5.419,-0.16,-0.13,0.19,-0.42,-0.92,-0.39
5.42,-0.16,-0.13,0.19,-0.49,-0.82,-0.40
5.422,-0.17,-0.15,0.17,-0.49,-0.82,-0.40
5.422,-0.17,-0.15,0.17,-0.53,-0.73,-0.45
5.423,-0.18,-0.17,0.16,-0.53,-0.73,-0.45
5.424,-0.18,-0.17,0.16,-0.56,-0.60,-0.55
5.442,-0.20,-0.20,0.15,-0.56,-0.60,-0.55
5.444,-0.20,-0.20,0.15,-0.60,-0.50,-0.59
5.445,-0.22,-0.23,0.14,-0.60,-0.50,-0.59
5.445,-0.22,-0.23,0.14,-0.60,-0.41,-0.61
5.446,-0.24,-0.26,0.13,-0.60,-0.41,-0.61
5.447,-0.24,-0.26,0.13,-0.58,-0.28,-0.60
5.448,-0.26,-0.29,0.12,-0.58,-0.28,-0.60
5.449,-0.26,-0.29,0.12,-0.44,-0.21,-0.60
5.449,-0.28,-0.32,0.11,-0.44,-0.21,-0.60
5.45,-0.28,-0.32,0.11,-0.37,-0.15,-0.58
5.452,-0.30,-0.33,0.11,-0.37,-0.15,-0.58
5.453,-0.30,-0.33,0.11,-0.33,-0.02,-0.64
5.457,-0.33,-0.35,0.10,-0.33,-0.02,-0.64
5.458,-0.33,-0.35,0.10,-0.15,-0.06,-0.67
5.462,-0.36,-0.35,0.10,-0.15,-0.06,-0.67
5.462,-0.36,-0.35,0.10,0.02,-0.05,-0.61
5.467,-0.36,-0.35,0.10,0.19,0.04,-0.56
5.468,-0.39,-0.34,0.09,0.19,0.04,-0.56
5.473,-0.41,-0.32,0.07,0.19,0.04,-0.56
5.475,-0.41,-0.32,0.07,0.31,0.09,-0.58
5.477,-0.41,-0.32,0.07,0.36,0.09,-0.45
5.478,-0.44,-0.30,0.06,0.36,0.09,-0.45
5.482,-0.47,-0.27,0.05,0.36,0.09,-0.45
5.483,-0.47,-0.27,0.05,0.40,0.17,-0.32
5.487,-0.47,-0.27,0.05,0.41,0.24,-0.23
5.491,-0.50,-0.24,0.04,0.41,0.24,-0.23
5.494,-0.50,-0.24,0.04,0.37,0.23,-0.14
5.495,-0.54,-0.21,0.03,0.37,0.23,-0.14
5.497,-0.54,-0.21,0.03,0.32,0.27,-0.11
5.498,-0.57,-0.19,0.02,0.32,0.27,-0.11
5.502,-0.57,-0.19,0.02,0.25,0.32,-0.08
5.503,-0.61,-0.16,0.01,0.25,0.32,-0.08
5.508,-0.61,-0.16,0.01,0.18,0.35,-0.07
5.51,-0.64,-0.14,-0.00,0.18,0.35,-0.07
5.512,-0.67,-0.12,-0.02,0.18,0.35,-0.07
5.513,-0.67,-0.12,-0.02,0.13,0.38,-0.02
5.522,-0.67,-0.12,-0.02,0.10,0.46,0.04
5.523,-0.71,-0.11,-0.03,0.10,0.46,0.04
5.528,-0.71,-0.11,-0.03,0.14,0.55,0.13
5.53,-0.75,-0.09,-0.06,0.14,0.55,0.13
5.531,-0.75,-0.09,-0.06,0.16,0.71,0.26
5.532,-0.79,-0.08,-0.09,0.16,0.71,0.26
5.533,-0.79,-0.08,-0.09,0.14,0.76,0.43
5.534,-0.82,-0.07,-0.12,0.14,0.76,0.43
5.547,-0.82,-0.07,-0.12,0.09,0.84,0.59
5.548,-0.84,-0.06,-0.15,0.09,0.84,0.59
5.549,-0.84,-0.06,-0.15,0.09,0.86,0.63
5.549,-0.86,-0.06,-0.17,0.09,0.86,0.63
5.55,-0.86,-0.06,-0.17,0.10,0.79,0.69
5.554,-0.87,-0.07,-0.19,0.10,0.79,0.69
5.555,-0.87,-0.07,-0.19,0.06,0.54,0.71
5.556,-0.89,-0.07,-0.19,0.06,0.54,0.71
5.572,-0.89,-0.07,-0.19,0.05,0.19,0.72
5.574,-0.90,-0.07,-0.19,0.05,0.19,0.72
5.574,-0.90,-0.07,-0.19,0.04,-0.26,0.68
5.575,-0.90,-0.08,-0.18,0.04,-0.26,0.68
5.576,-0.90,-0.08,-0.18,0.12,-0.76,0.55
5.577,-0.90,-0.10,-0.15,0.12,-0.76,0.55
5.578,-0.90,-0.10,-0.15,0.27,-1.16,0.26
5.579,-0.89,-0.12,-0.12,0.27,-1.16,0.26
5.579,-0.90,-0.12,-0.09,0.27,-1.16,0.26
5.58,-0.90,-0.12,-0.09,0.57,-1.49,0.06
5.583,-0.91,-0.10,-0.08,0.57,-1.49,0.06
5.584,-0.91,-0.10,-0.08,0.90,-1.61,-0.03
5.589,-0.91,-0.10,-0.08,1.12,-1.55,-0.04
5.59,-0.93,-0.05,-0.08,1.12,-1.55,-0.04
5.593,-0.96,0.03,-0.10,1.12,-1.55,-0.04
5.594,-0.96,0.03,-0.10,1.37,-1.36,0.00
5.598,-0.96,0.03,-0.10,1.48,-1.11,0.15
5.599,-0.98,0.13,-0.13,1.48,-1.11,0.15
5.603,-1.00,0.23,-0.17,1.48,-1.11,0.15
5.604,-1.00,0.23,-0.17,1.41,-0.84,0.28
5.609,-1.03,0.30,-0.21,1.41,-0.84,0.28
5.61,-1.03,0.30,-0.21,1.30,-0.54,0.41
5.613,-1.06,0.34,-0.25,1.30,-0.54,0.41
5.614,-1.06,0.34,-0.25,1.22,-0.20,0.46
5.618,-1.06,0.34,-0.25,1.30,0.14,0.47
5.619,-1.10,0.35,-0.29,1.30,0.14,0.47
5.623,-1.10,0.35,-0.29,1.49,0.49,0.42
5.625,-1.14,0.32,-0.33,1.49,0.49,0.42
5.628,-1.14,0.32,-0.33,1.60,0.86,0.22
5.629,-1.18,0.27,-0.36,1.60,0.86,0.22
5.633,-1.23,0.20,-0.37,1.60,0.86,0.22
5.634,-1.23,0.20,-0.37,1.68,1.07,-0.06
5.639,-1.23,0.20,-0.37,1.77,1.20,-0.36
5.641,-1.26,0.11,-0.36,1.77,1.20,-0.36
5.644,-1.29,0.00,-0.32,1.77,1.20,-0.36
5.644,-1.29,0.00,-0.32,1.97,1.37,-0.70
5.648,-1.29,0.00,-0.32,2.25,1.49,-1.13
5.649,-1.29,-0.09,-0.25,2.25,1.49,-1.13
5.653,-1.28,-0.12,-0.19,2.25,1.49,-1.13
5.654,-1.28,-0.12,-0.19,2.48,1.47,-1.67
5.659,-1.25,-0.07,-0.14,2.48,1.47,-1.67
5.66,-1.25,-0.07,-0.14,2.49,1.41,-2.11
5.664,-1.21,0.07,-0.10,2.49,1.41,-2.11
5.664,-1.21,0.07,-0.10,2.24,1.34,-2.43
5.668,-1.19,0.28,-0.05,2.24,1.34,-2.43
5.67,-1.19,0.28,-0.05,1.83,1.13,-2.60
5.68,-1.19,0.50,-0.01,1.83,1.13,-2.60
5.682,-1.19,0.50,-0.01,1.41,0.95,-2.49
5.683,-1.19,0.50,-0.01,1.25,0.86,-2.03
5.686,-1.23,0.67,0.01,1.25,0.86,-2.03
5.687,-1.29,0.72,-0.01,1.25,0.86,-2.03
5.688,-1.29,0.72,-0.01,1.06,0.86,-1.39
5.704,-1.35,0.69,-0.06,1.06,0.86,-1.39
5.706,-1.35,0.69,-0.06,0.68,0.91,-0.94
5.707,-1.39,0.60,-0.14,0.68,0.91,-0.94
5.708,-1.39,0.60,-0.14,0.20,1.02,-0.89
5.709,-1.43,0.47,-0.21,0.20,1.02,-0.89
5.71,-1.43,0.47,-0.21,-0.30,1.14,-1.22
5.711,-1.43,0.47,-0.21,-0.69,1.28,-1.76
5.712,-1.48,0.35,-0.28,-0.69,1.28,-1.76
5.712,-1.53,0.25,-0.34,-0.69,1.28,-1.76
5.713,-1.53,0.25,-0.34,-0.94,1.35,-2.28
5.714,-1.59,0.18,-0.38,-0.94,1.35,-2.28
5.715,-1.59,0.18,-0.38,-1.06,1.42,-2.55
5.719,-1.59,0.18,-0.38,-1.12,1.44,-2.57
5.72,-1.64,0.13,-0.41,-1.12,1.44,-2.57
5.724,-1.69,0.09,-0.42,-1.12,1.44,-2.57
5.726,-1.69,0.09,-0.42,-1.17,1.48,-2.50
5.729,-1.72,0.06,-0.42,-1.17,1.48,-2.50
5.73,-1.72,0.06,-0.42,-1.21,1.46,-2.32
5.734,-1.74,0.04,-0.40,-1.21,1.46,-2.32
5.735,-1.74,0.04,-0.40,-1.20,1.42,-2.14
5.739,-1.74,0.04,-0.40,-1.14,1.38,-1.97
5.741,-1.76,0.02,-0.39,-1.14,1.38,-1.97
5.744,-1.76,0.02,-0.39,-1.11,1.34,-1.86
5.745,-1.77,-0.00,-0.37,-1.11,1.34,-1.86
5.749,-1.77,-0.00,-0.37,-1.06,1.28,-1.74
5.75,-1.77,-0.02,-0.34,-1.06,1.28,-1.74
5.755,-1.77,-0.03,-0.32,-1.06,1.28,-1.74
5.757,-1.77,-0.03,-0.32,-1.04,1.21,-1.65
5.759,-1.77,-0.06,-0.30,-1.04,1.21,-1.65
5.76,-1.77,-0.06,-0.30,-1.00,1.11,-1.54
5.764,-1.75,-0.09,-0.27,-1.00,1.11,-1.54
5.765,-1.75,-0.09,-0.27,-0.84,1.01,-1.45
5.775,-1.75,-0.09,-0.27,-0.74,0.89,-1.42
5.776,-1.73,-0.12,-0.25,-0.74,0.89,-1.42
5.779,-1.70,-0.14,-0.22,-0.74,0.89,-1.42
5.78,-1.70,-0.14,-0.22,-0.61,0.76,-1.50
5.781,-1.67,-0.16,-0.19,-0.61,0.76,-1.50
5.782,-1.67,-0.16,-0.19,-0.47,0.61,-1.62
5.785,-1.67,-0.16,-0.19,-0.26,0.41,-1.69
5.787,-1.63,-0.16,-0.17,-0.26,0.41,-1.69
5.792,-1.61,-0.15,-0.15,-0.26,0.41,-1.69
5.794,-1.61,-0.15,-0.15,-0.08,0.28,-1.67
5.795,-1.58,-0.13,-0.14,-0.08,0.28,-1.67
5.796,-1.58,-0.13,-0.14,0.06,0.14,-1.64
5.799,-1.55,-0.10,-0.13,0.06,0.14,-1.64
5.8,-1.55,-0.10,-0.13,0.24,0.04,-1.54
5.806,-1.53,-0.07,-0.13,0.24,0.04,-1.54
5.808,-1.53,-0.07,-0.13,0.40,-0.08,-1.31
5.81,-1.51,-0.07,-0.15,0.40,-0.08,-1.31
5.811,-1.51,-0.07,-0.15,0.55,-0.19,-1.02
5.815,-1.51,-0.07,-0.15,0.70,-0.23,-0.82
5.816,-1.49,-0.06,-0.17,0.70,-0.23,-0.82
5.819,-1.49,-0.06,-0.17,0.72,-0.19,-0.76
5.82,-1.47,-0.06,-0.19,0.72,-0.19,-0.76
5.83,-1.47,-0.06,-0.19,0.72,-0.11,-0.75
5.831,-1.45,-0.06,-0.22,0.72,-0.11,-0.75
5.832,-1.45,-0.06,-0.22,0.65,-0.12,-0.71
5.836,-1.44,-0.06,-0.26,0.65,-0.12,-0.71
5.84,-1.42,-0.05,-0.30,0.65,-0.12,-0.71
5.841,-1.42,-0.05,-0.30,0.53,0.04,-0.74
5.842,-1.42,-0.05,-0.30,0.25,0.19,-0.77
5.843,-1.41,-0.04,-0.32,0.25,0.19,-0.77
5.845,-1.40,-0.02,-0.34,0.25,0.19,-0.77
5.846,-1.40,-0.02,-0.34,0.03,0.23,-0.65
5.85,-1.39,-0.01,-0.35,0.03,0.23,-0.65
5.851,-1.39,-0.01,-0.35,-0.09,0.30,-0.51
5.857,-1.39,-0.02,-0.36,-0.09,0.30,-0.51
5.857,-1.39,-0.02,-0.36,-0.17,0.43,-0.39
5.86,-1.39,-0.02,-0.36,-0.24,0.52,-0.17
5.861,-1.39,-0.05,-0.37,-0.24,0.52,-0.17
5.865,-1.39,-0.05,-0.37,-0.22,0.59,-0.05
5.866,-1.38,-0.07,-0.39,-0.22,0.59,-0.05
5.87,-1.37,-0.09,-0.40,-0.22,0.59,-0.05
5.871,-1.37,-0.09,-0.40,-0.20,0.76,-0.04
5.875,-1.36,-0.12,-0.41,-0.20,0.76,-0.04
5.877,-1.36,-0.12,-0.41,-0.24,0.95,-0.18
5.88,-1.36,-0.13,-0.42,-0.24,0.95,-0.18
5.881,-1.36,-0.13,-0.42,-0.31,1.06,-0.35
5.885,-1.36,-0.13,-0.42,-0.46,1.21,-0.44
5.886,-1.37,-0.13,-0.42,-0.46,1.21,-0.44
5.891,-1.37,-0.13,-0.42,-0.57,1.30,-0.55
5.893,-1.38,-0.13,-0.42,-0.57,1.30,-0.55
5.895,-1.38,-0.13,-0.42,-0.59,1.42,-0.61
5.896,-1.39,-0.13,-0.41,-0.59,1.42,-0.61
5.9,-1.39,-0.13,-0.41,-0.65,1.55,-0.61
5.901,-1.39,-0.13,-0.40,-0.65,1.55,-0.61
5.905,-1.40,-0.12,-0.38,-0.65,1.55,-0.61
5.908,-1.40,-0.12,-0.38,-0.68,1.59,-0.62
5.91,-1.40,-0.12,-0.38,-0.77,1.56,-0.60
5.911,-1.41,-0.12,-0.37,-0.77,1.56,-0.60
5.915,-1.42,-0.11,-0.36,-0.77,1.56,-0.60
5.916,-1.42,-0.11,-0.36,-0.85,1.51,-0.55
5.92,-1.42,-0.11,-0.36,-0.89,1.44,-0.42
5.921,-1.43,-0.12,-0.35,-0.89,1.44,-0.42
5.925,-1.43,-0.12,-0.35,-0.92,1.38,-0.37
5.927,-1.43,-0.14,-0.34,-0.92,1.38,-0.37
5.93,-1.43,-0.14,-0.34,-0.87,1.22,-0.30
5.931,-1.44,-0.17,-0.34,-0.87,1.22,-0.30
5.936,-1.44,-0.20,-0.35,-0.87,1.22,-0.30
5.937,-1.44,-0.20,-0.35,-0.86,1.13,-0.23
5.941,-1.44,-0.24,-0.35,-0.86,1.13,-0.23
5.943,-1.44,-0.24,-0.35,-0.88,1.07,-0.19
5.945,-1.44,-0.24,-0.35,-0.84,0.98,-0.16
5.946,-1.43,-0.27,-0.35,-0.84,0.98,-0.16
5.951,-1.43,-0.27,-0.35,-0.80,0.91,-0.21
5.951,-1.42,-0.29,-0.34,-0.80,0.91,-0.21
5.964,-1.42,-0.29,-0.34,-0.74,0.85,-0.20
5.966,-1.42,-0.31,-0.34,-0.74,0.85,-0.20
5.967,-1.42,-0.31,-0.34,-0.67,0.77,-0.16
5.968,-1.41,-0.32,-0.33,-0.67,0.77,-0.16
5.969,-1.40,-0.32,-0.32,-0.67,0.77,-0.16
5.97,-1.40,-0.32,-0.32,-0.57,0.65,-0.11
5.988,-1.38,-0.32,-0.31,-0.57,0.65,-0.11
5.99,-1.38,-0.32,-0.31,-0.48,0.58,-0.08
5.991,-1.36,-0.32,-0.29,-0.48,0.58,-0.08
5.991,-1.36,-0.32,-0.29,-0.43,0.53,-0.06
5.992,-1.34,-0.32,-0.28,-0.43,0.53,-0.06
5.993,-1.34,-0.32,-0.28,-0.37,0.49,-0.08
5.993,-1.34,-0.32,-0.28,-0.28,0.46,-0.12
5.995,-1.31,-0.31,-0.27,-0.28,0.46,-0.12
5.995,-1.31,-0.31,-0.27,-0.21,0.46,-0.15
5.996,-1.30,-0.30,-0.26,-0.21,0.46,-0.15
5.997,-1.28,-0.28,-0.25,-0.21,0.46,-0.15
5.998,-1.28,-0.28,-0.25,-0.20,0.42,-0.18
6.001,-1.25,-0.26,-0.24,-0.20,0.42,-0.18
6.002,-1.25,-0.26,-0.24,-0.26,0.44,-0.16
6.007,-1.25,-0.26,-0.24,-0.36,0.48,-0.11
6.008,-1.23,-0.24,-0.22,-0.36,0.48,-0.11
6.011,-1.21,-0.23,-0.21,-0.36,0.48,-0.11
6.012,-1.21,-0.23,-0.21,-0.42,0.48,-0.06
6.016,-1.20,-0.22,-0.19,-0.42,0.48,-0.06
6.017,-1.20,-0.22,-0.19,-0.49,0.51,-0.06
6.027,-1.20,-0.22,-0.19,-0.51,0.56,-0.05
6.029,-1.19,-0.21,-0.17,-0.51,0.56,-0.05
6.031,-1.19,-0.21,-0.17,-0.55,0.57,0.02
6.032,-1.17,-0.21,-0.14,-0.55,0.57,0.02
6.032,-1.17,-0.21,-0.14,-0.56,0.61,0.08
6.033,-1.16,-0.21,-0.12,-0.56,0.61,0.08
6.037,-1.16,-0.21,-0.12,-0.54,0.66,0.09
6.038,-1.15,-0.20,-0.10,-0.54,0.66,0.09
6.044,-1.14,-0.21,-0.08,-0.54,0.66,0.09
6.045,-1.14,-0.21,-0.08,-0.60,0.72,0.07
6.046,-1.13,-0.21,-0.06,-0.60,0.72,0.07
6.047,-1.13,-0.21,-0.06,-0.60,0.74,0.05
6.051,-1.13,-0.21,-0.06,-0.61,0.78,-0.04
6.052,-1.12,-0.21,-0.05,-0.61,0.78,-0.04
6.057,-1.12,-0.23,-0.04,-0.61,0.78,-0.04
6.059,-1.12,-0.23,-0.04,-0.61,0.83,-0.15
6.061,-1.12,-0.24,-0.02,-0.61,0.83,-0.15
6.062,-1.12,-0.24,-0.02,-0.66,0.88,-0.27
6.066,-1.12,-0.24,-0.02,-0.72,0.92,-0.41
6.067,-1.12,-0.26,-0.01,-0.72,0.92,-0.41
6.079,-1.12,-0.26,-0.01,-0.75,0.93,-0.53
6.081,-1.13,-0.27,-0.00,-0.75,0.93,-0.53
6.082,-1.13,-0.27,-0.00,-0.73,1.05,-0.55
6.083,-1.14,-0.29,0.01,-0.73,1.05,-0.55
6.087,-1.14,-0.29,0.01,-0.62,1.09,-0.63
6.088,-1.14,-0.30,0.02,-0.62,1.09,-0.63
6.09,-1.15,-0.31,0.04,-0.62,1.09,-0.63
6.092,-1.15,-0.31,0.04,-0.52,1.12,-0.65
6.093,-1.15,-0.31,0.04,-0.41,1.06,-0.54
6.1,-1.15,-0.31,0.05,-0.41,1.06,-0.54
6.101,-1.15,-0.31,0.05,-0.27,0.98,-0.38
6.102,-1.16,-0.30,0.06,-0.27,0.98,-0.38
6.103,-1.16,-0.30,0.06,-0.12,0.98,-0.12
6.104,-1.17,-0.29,0.07,-0.12,0.98,-0.12
6.107,-1.17,-0.29,0.07,0.07,0.90,0.10
6.109,-1.17,-0.27,0.08,0.07,0.90,0.10
6.112,-1.17,-0.27,0.08,0.18,0.79,0.21
6.113,-1.18,-0.26,0.08,0.18,0.79,0.21
6.117,-1.19,-0.26,0.08,0.18,0.79,0.21
6.118,-1.19,-0.26,0.08,0.26,0.72,0.27
6.124,-1.19,-0.26,0.08,0.35,0.60,0.17
6.125,-1.20,-0.25,0.09,0.35,0.60,0.17
6.127,-1.20,-0.25,0.09,0.35,0.60,0.17
6.128,-1.20,-0.25,0.09,0.29,0.47,0.05
6.132,-1.20,-0.25,0.09,0.22,0.30,-0.00
6.133,-1.20,-0.23,0.09,0.22,0.30,-0.00
6.139,-1.20,-0.19,0.10,0.22,0.30,-0.00
6.141,-1.20,-0.19,0.10,0.18,0.08,0.05
6.142,-1.20,-0.13,0.12,0.18,0.08,0.05
6.143,-1.20,-0.13,0.12,0.08,-0.04,0.22
6.147,-1.20,-0.06,0.13,0.08,-0.04,0.22
6.148,-1.20,-0.06,0.13,0.01,-0.12,0.46
6.152,-1.20,-0.06,0.13,-0.07,-0.21,0.78
6.153,-1.20,-0.01,0.14,-0.07,-0.21,0.78
6.157,-1.19,0.01,0.15,-0.07,-0.21,0.78
6.159,-1.19,0.01,0.15,-0.14,-0.30,1.11
6.162,-1.19,0.01,0.15,-0.24,-0.35,1.34
6.163,-1.18,0.03,0.17,-0.24,-0.35,1.34
6.167,-1.18,0.03,0.17,-0.34,-0.45,1.57
6.168,-1.15,0.03,0.18,-0.34,-0.45,1.57
6.174,-1.15,0.03,0.18,-0.45,-0.49,1.72
6.175,-1.11,0.03,0.19,-0.45,-0.49,1.72
6.177,-1.08,0.03,0.20,-0.45,-0.49,1.72
6.178,-1.08,0.03,0.20,-0.53,-0.55,1.80
6.182,-1.04,0.03,0.21,-0.53,-0.55,1.80
6.183,-1.04,0.03,0.21,-0.58,-0.59,1.87
6.187,-1.04,0.03,0.21,-0.64,-0.67,1.93
6.188,-1.01,0.04,0.22,-0.64,-0.67,1.93
6.193,-0.97,0.05,0.22,-0.64,-0.67,1.93
6.194,-0.97,0.05,0.22,-0.71,-0.68,2.02
6.197,-0.97,0.05,0.22,-0.79,-0.64,2.12
6.198,-0.94,0.06,0.23,-0.79,-0.64,2.12
6.203,-0.91,0.07,0.23,-0.79,-0.64,2.12
6.204,-0.91,0.07,0.23,-0.89,-0.59,2.24
6.215,-0.88,0.07,0.23,-0.89,-0.59,2.24
6.217,-0.88,0.07,0.23,-1.04,-0.49,2.27
6.219,-0.88,0.07,0.23,-1.16,-0.37,2.32
6.22,-0.85,0.06,0.24,-1.16,-0.37,2.32
6.238,-0.82,0.04,0.24,-1.16,-0.37,2.32
6.239,-0.82,0.04,0.24,-1.22,-0.16,2.35
6.24,-0.82,0.04,0.24,-1.24,0.12,2.38
6.242,-0.80,0.02,0.24,-1.24,0.12,2.38
6.243,-0.80,0.02,0.24,-1.28,0.28,2.34
6.244,-0.78,-0.01,0.26,-1.28,0.28,2.34
6.245,-0.78,-0.01,0.26,-1.30,0.47,2.35
6.245,-0.76,-0.03,0.27,-1.30,0.47,2.35
6.246,-0.74,-0.05,0.29,-1.30,0.47,2.35
6.247,-0.74,-0.05,0.29,-1.35,0.54,2.34
6.248,-0.72,-0.06,0.32,-1.35,0.54,2.34
6.248,-0.72,-0.06,0.32,-1.33,0.54,2.29
6.249,-0.71,-0.08,0.35,-1.33,0.54,2.29
6.249,-0.71,-0.08,0.35,-1.18,0.72,2.14
6.253,-0.71,-0.11,0.37,-1.18,0.72,2.14
6.254,-0.71,-0.11,0.37,-0.82,0.94,1.84
6.258,-0.71,-0.16,0.38,-0.82,0.94,1.84
6.26,-0.71,-0.16,0.38,-0.41,1.16,1.34
6.263,-0.72,-0.23,0.39,-0.41,1.16,1.34
6.264,-0.72,-0.23,0.39,0.18,1.40,0.84
6.268,-0.72,-0.23,0.39,0.87,1.65,0.33
6.269,-0.74,-0.31,0.38,0.87,1.65,0.33
6.279,-0.74,-0.31,0.38,1.61,1.86,-0.22
6.282,-0.76,-0.41,0.35,1.61,1.86,-0.22
6.283,-0.78,-0.50,0.32,1.61,1.86,-0.22
6.284,-0.78,-0.50,0.32,2.34,2.10,-0.71
6.285,-0.81,-0.58,0.27,2.34,2.10,-0.71
6.286,-0.81,-0.58,0.27,3.19,2.33,-1.25
6.289,-0.84,-0.62,0.21,3.19,2.33,-1.25
6.29,-0.84,-0.62,0.21,3.83,2.42,-1.82
6.293,-0.88,-0.60,0.14,3.83,2.42,-1.82
6.294,-0.88,-0.60,0.14,4.08,2.30,-2.35
6.298,-0.94,-0.51,0.08,4.08,2.30,-2.35
6.299,-0.94,-0.51,0.08,4.34,2.34,-2.55
6.303,-0.94,-0.51,0.08,4.61,2.37,-2.45
6.304,-1.00,-0.40,0.02,4.61,2.37,-2.45
6.309,-1.00,-0.40,0.02,4.48,2.14,-2.28
6.31,-1.04,-0.28,-0.02,4.48,2.14,-2.28
6.313,-1.07,-0.15,-0.03,4.48,2.14,-2.28
6.314,-1.07,-0.15,-0.03,4.10,1.68,-2.08
6.318,-1.07,-0.15,-0.03,3.48,1.05,-1.87
6.319,-1.09,0.04,-0.02,3.48,1.05,-1.87
6.325,-1.09,0.04,-0.02,2.81,0.39,-1.49
6.326,-1.10,0.26,0.02,2.81,0.39,-1.49
6.328,-1.10,0.26,0.02,2.23,-0.20,-0.88
6.329,-1.10,0.47,0.07,2.23,-0.20,-0.88
6.333,-1.10,0.65,0.11,2.23,-0.20,-0.88
6.334,-1.10,0.65,0.11,1.71,-0.73,-0.12
6.345,-1.10,0.65,0.11,1.13,-1.13,0.65
6.347,-1.08,0.76,0.15,1.13,-1.13,0.65
6.348,-1.05,0.79,0.18,1.13,-1.13,0.65
6.349,-1.05,0.79,0.18,0.58,-1.37,1.11
6.35,-1.00,0.75,0.21,0.58,-1.37,1.11
6.351,-1.00,0.75,0.21,0.05,-1.39,1.22
6.354,-1.00,0.75,0.21,-0.39,-1.25,0.93
6.355,-0.96,0.68,0.23,-0.39,-1.25,0.93
6.37,-0.93,0.60,0.24,-0.39,-1.25,0.93
6.373,-0.93,0.60,0.24,-0.78,-0.90,0.41
6.374,-0.93,0.60,0.24,-1.05,-0.49,-0.14
6.375,-0.91,0.53,0.25,-1.05,-0.49,-0.14
6.375,-0.91,0.48,0.26,-1.05,-0.49,-0.14
6.376,-0.91,0.48,0.26,-1.27,-0.16,-0.50
6.377,-0.91,0.43,0.26,-1.27,-0.16,-0.50
6.378,-0.91,0.43,0.26,-1.43,0.06,-0.68
6.379,-0.91,0.38,0.26,-1.43,0.06,-0.68
6.379,-0.91,0.38,0.26,-1.46,0.26,-0.71
6.384,-0.90,0.32,0.26,-1.46,0.26,-0.71
6.384,-0.90,0.32,0.26,-1.42,0.41,-0.76
6.389,-0.90,0.32,0.26,-1.32,0.54,-0.84
6.391,-0.89,0.26,0.24,-1.32,0.54,-0.84
6.394,-0.89,0.26,0.24,-1.25,0.59,-1.04
6.395,-0.89,0.20,0.22,-1.25,0.59,-1.04
6.399,-0.90,0.14,0.20,-1.25,0.59,-1.04
6.4,-0.90,0.14,0.20,-1.25,0.56,-1.30
6.404,-0.90,0.14,0.20,-1.28,0.50,-1.62
6.405,-0.92,0.09,0.18,-1.28,0.50,-1.62
6.409,-0.95,0.07,0.17,-1.28,0.50,-1.62
6.411,-0.95,0.07,0.17,-1.28,0.40,-1.84
6.414,-1.00,0.06,0.15,-1.28,0.40,-1.84
6.415,-1.00,0.06,0.15,-1.20,0.14,-1.93
6.419,-1.04,0.05,0.14,-1.20,0.14,-1.93
6.42,-1.04,0.05,0.14,-1.09,-0.25,-1.85
6.424,-1.07,0.04,0.13,-1.09,-0.25,-1.85
6.426,-1.07,0.04,0.13,-0.90,-0.61,-1.73
6.429,-1.07,0.04,0.13,-0.60,-1.02,-1.54
6.43,-1.10,0.02,0.12,-0.60,-1.02,-1.54
6.434,-1.10,0.02,0.12,-0.33,-1.39,-1.36
6.435,-1.11,0.00,0.12,-0.33,-1.39,-1.36
6.44,-1.12,-0.01,0.11,-0.33,-1.39,-1.36
6.442,-1.12,-0.01,0.11,-0.04,-1.69,-1.27
6.444,-1.11,-0.01,0.10,-0.04,-1.69,-1.27
6.445,-1.11,-0.01,0.10,0.20,-1.85,-1.15
6.449,-1.11,-0.01,0.10,0.42,-1.93,-1.08
6.45,-1.11,0.01,0.09,0.42,-1.93,-1.08
6.455,-1.10,0.03,0.10,0.42,-1.93,-1.08
6.458,-1.10,0.03,0.10,0.60,-1.97,-0.95
6.46,-1.09,0.07,0.10,0.60,-1.97,-0.95
6.46,-1.09,0.07,0.10,0.77,-1.95,-0.83
6.464,-1.08,0.12,0.11,0.77,-1.95,-0.83
6.465,-1.08,0.12,0.11,0.86,-1.90,-0.73
6.469,-1.08,0.12,0.11,0.94,-1.72,-0.68
6.47,-1.08,0.17,0.12,0.94,-1.72,-0.68
6.475,-1.08,0.17,0.12,0.88,-1.49,-0.63
6.476,-1.08,0.21,0.13,0.88,-1.49,-0.63
6.479,-1.08,0.23,0.14,0.88,-1.49,-0.63
6.48,-1.08,0.23,0.14,0.74,-1.34,-0.60
6.484,-1.08,0.23,0.14,0.66,-1.14,-0.55
6.485,-1.08,0.25,0.16,0.66,-1.14,-0.55
6.496,-1.08,0.24,0.17,0.66,-1.14,-0.55
6.498,-1.08,0.24,0.17,0.76,-0.88,-0.47
6.499,-1.08,0.24,0.17,0.71,-0.74,-0.41
6.501,-1.07,0.23,0.18,0.71,-0.74,-0.41
6.502,-1.07,0.24,0.19,0.71,-0.74,-0.41
6.502,-1.07,0.24,0.19,0.61,-0.54,-0.40
6.52,-1.06,0.26,0.19,0.61,-0.54,-0.40
6.521,-1.06,0.26,0.19,0.57,-0.34,-0.39
6.522,-1.06,0.26,0.19,0.45,-0.12,-0.34
6.523,-1.07,0.28,0.20,0.45,-0.12,-0.34
6.524,-1.07,0.28,0.20,0.22,-0.01,-0.23
6.525,-1.07,0.28,0.20,0.22,-0.01,-0.23
6.526,-1.07,0.28,0.20,-0.02,-0.05,-0.13
6.527,-1.08,0.28,0.21,-0.02,-0.05,-0.13
6.535,-1.09,0.27,0.23,-0.02,-0.05,-0.13
6.536,-1.09,0.27,0.23,-0.23,-0.14,-0.01
6.54,-1.09,0.25,0.25,-0.23,-0.14,-0.01
6.541,-1.09,0.25,0.25,-0.27,-0.26,0.07
6.543,-1.09,0.25,0.25,-0.20,-0.35,0.13
6.544,-1.09,0.23,0.27,-0.20,-0.35,0.13
6.545,-1.10,0.21,0.27,-0.20,-0.35,0.13
6.546,-1.10,0.21,0.27,-0.12,-0.45,0.13
6.547,-1.10,0.19,0.27,-0.12,-0.45,0.13
6.548,-1.10,0.19,0.27,-0.13,-0.59,0.13
6.551,-1.11,0.19,0.27,-0.13,-0.59,0.13
6.552,-1.11,0.19,0.27,-0.15,-0.75,0.15
6.556,-1.11,0.19,0.28,-0.15,-0.75,0.15
6.557,-1.11,0.19,0.28,-0.21,-0.86,0.20
6.56,-1.11,0.19,0.28,-0.24,-0.97,0.28
6.561,-1.11,0.19,0.27,-0.24,-0.97,0.28
6.566,-1.11,0.19,0.27,-0.35,-1.08,0.32
6.566,-1.11,0.19,0.27,-0.35,-1.08,0.32
6.57,-1.11,0.19,0.27,-0.48,-1.16,0.36
6.571,-1.11,0.19,0.27,-0.48,-1.16,0.36
6.575,-1.11,0.19,0.27,-0.58,-1.25,0.39
6.576,-1.10,0.17,0.26,-0.58,-1.25,0.39
6.58,-1.09,0.16,0.25,-0.58,-1.25,0.39
6.581,-1.09,0.16,0.25,-0.79,-1.35,0.41
6.585,-1.09,0.16,0.25,-0.95,-1.40,0.38
6.586,-1.08,0.14,0.24,-0.95,-1.40,0.38
6.596,-1.07,0.09,0.24,-0.95,-1.40,0.38
6.598,-1.07,0.09,0.24,-1.03,-1.45,0.37
6.599,-1.06,0.05,0.24,-1.03,-1.45,0.37
6.6,-1.06,0.05,0.24,-1.03,-1.53,0.34
6.601,-1.06,0.05,0.24,-1.03,-1.59,0.25
6.603,-1.05,0.00,0.25,-1.03,-1.59,0.25
6.606,-1.03,-0.03,0.25,-1.03,-1.59,0.25
6.607,-1.03,-0.03,0.25,-0.96,-1.61,0.16
6.62,-1.03,-0.03,0.25,-0.85,-1.63,0.09
6.623,-1.02,-0.05,0.25,-0.85,-1.63,0.09
6.624,-1.00,-0.08,0.24,-0.85,-1.63,0.09
6.625,-1.00,-0.08,0.24,-0.76,-1.67,0.03
6.626,-0.99,-0.09,0.23,-0.76,-1.67,0.03
6.627,-0.99,-0.09,0.23,-0.61,-1.66,-0.01
6.627,-0.99,-0.09,0.23,-0.56,-1.58,0.00
6.628,-0.98,-0.11,0.22,-0.56,-1.58,0.00
6.63,-0.96,-0.13,0.20,-0.56,-1.58,0.00
6.631,-0.96,-0.13,0.20,-0.49,-1.54,0.04
6.635,-0.96,-0.13,0.20,-0.42,-1.50,0.08
6.636,-0.95,-0.14,0.19,-0.42,-1.50,0.08
6.641,-0.93,-0.15,0.18,-0.42,-1.50,0.08
6.642,-0.93,-0.15,0.18,-0.36,-1.44,0.10
6.646,-0.93,-0.15,0.18,-0.31,-1.37,0.16
6.646,-0.92,-0.15,0.17,-0.31,-1.37,0.16
6.65,-0.90,-0.16,0.16,-0.31,-1.37,0.16
6.651,-0.90,-0.16,0.16,-0.22,-1.26,0.17
6.655,-0.90,-0.16,0.16,-0.15,-1.16,0.15
6.658,-0.88,-0.15,0.15,-0.15,-1.16,0.15
6.661,-0.87,-0.15,0.15,-0.15,-1.16,0.15
6.662,-0.87,-0.15,0.15,-0.14,-1.01,0.15
6.666,-0.86,-0.16,0.14,-0.14,-1.01,0.15
6.667,-0.86,-0.16,0.14,-0.09,-0.95,0.12
6.672,-0.86,-0.16,0.14,-0.02,-0.94,0.08
6.674,-0.84,-0.15,0.14,-0.02,-0.94,0.08
6.676,-0.83,-0.15,0.14,-0.02,-0.94,0.08
6.677,-0.83,-0.15,0.14,0.06,-0.89,0.11
6.681,-0.82,-0.14,0.13,0.06,-0.89,0.11
6.682,-0.82,-0.14,0.13,0.12,-0.83,0.15
6.686,-0.82,-0.14,0.13,0.16,-0.81,0.12
6.687,-0.81,-0.13,0.13,0.16,-0.81,0.12
6.691,-0.81,-0.13,0.13,0.18,-0.80,0.08
6.692,-0.80,-0.11,0.13,0.18,-0.80,0.08
6.696,-0.80,-0.11,0.13,0.20,-0.72,0.09
6.697,-0.79,-0.10,0.12,0.20,-0.72,0.09
6.701,-0.79,-0.08,0.12,0.20,-0.72,0.09
6.702,-0.79,-0.08,0.12,0.20,-0.69,0.14
6.706,-0.79,-0.08,0.12,0.17,-0.63,0.16
6.709,-0.79,-0.07,0.11,0.17,-0.63,0.16
6.711,-0.79,-0.06,0.10,0.17,-0.63,0.16
6.712,-0.79,-0.06,0.10,0.16,-0.55,0.12
6.716,-0.79,-0.05,0.09,0.16,-0.55,0.12
6.717,-0.79,-0.05,0.09,0.12,-0.56,0.15
6.722,-0.79,-0.05,0.09,0.08,-0.57,0.25
6.725,-0.79,-0.03,0.08,0.08,-0.57,0.25
6.726,-0.79,-0.03,0.08,-0.03,-0.56,0.37
6.727,-0.79,-0.02,0.07,-0.03,-0.56,0.37
6.731,-0.78,-0.02,0.07,-0.03,-0.56,0.37
6.732,-0.78,-0.02,0.07,-0.10,-0.59,0.44
6.736,-0.78,-0.02,0.07,-0.19,-0.64,0.43
6.737,-0.77,-0.02,0.06,-0.19,-0.64,0.43
6.751,-0.76,-0.03,0.06,-0.19,-0.64,0.43
6.753,-0.76,-0.03,0.06,-0.22,-0.67,0.37
6.753,-0.76,-0.03,0.06,-0.26,-0.70,0.33
6.754,-0.75,-0.04,0.06,-0.26,-0.70,0.33
6.756,-0.75,-0.04,0.06,-0.25,-0.71,0.36
6.757,-0.73,-0.03,0.06,-0.25,-0.71,0.36
6.759,-0.72,-0.02,0.06,-0.25,-0.71,0.36
6.76,-0.72,-0.02,0.06,-0.24,-0.84,0.43
6.776,-0.70,-0.02,0.05,-0.24,-0.84,0.43
6.778,-0.70,-0.02,0.05,-0.26,-0.90,0.52
6.779,-0.70,-0.02,0.05,-0.26,-0.97,0.62
6.779,-0.69,-0.02,0.05,-0.26,-0.97,0.62
6.78,-0.67,-0.03,0.05,-0.26,-0.97,0.62
6.781,-0.67,-0.03,0.05,-0.27,-1.08,0.67
6.803,-0.67,-0.03,0.05,-0.26,-1.14,0.70
6.804,-0.65,-0.04,0.05,-0.26,-1.14,0.70
6.805,-0.64,-0.04,0.05,-0.26,-1.14,0.70
6.806,-0.64,-0.04,0.05,-0.26,-1.22,0.69
6.807,-0.64,-0.04,0.05,-0.24,-1.29,0.68
6.808,-0.62,-0.04,0.06,-0.24,-1.29,0.68
6.809,-0.61,-0.05,0.06,-0.24,-1.29,0.68
6.81,-0.61,-0.05,0.06,-0.19,-1.36,0.75
6.81,-0.61,-0.05,0.06,-0.14,-1.33,0.74
6.811,-0.59,-0.04,0.06,-0.14,-1.33,0.74
6.812,-0.58,-0.04,0.06,-0.14,-1.33,0.74
6.812,-0.58,-0.04,0.06,-0.12,-1.34,0.71
6.813,-0.58,-0.04,0.06,-0.08,-1.30,0.67
6.814,-0.56,-0.04,0.05,-0.08,-1.30,0.67
6.814,-0.56,-0.04,0.05,-0.03,-1.21,0.67
6.815,-0.55,-0.03,0.05,-0.03,-1.21,0.67
6.819,-0.55,-0.03,0.05,0.04,-1.17,0.67
6.82,-0.55,-0.02,0.05,0.04,-1.17,0.67
6.823,-0.55,-0.02,0.05,0.07,-1.11,0.62
6.824,-0.54,-0.02,0.04,0.07,-1.11,0.62
6.827,-0.54,-0.00,0.03,0.07,-1.11,0.62
6.827,-0.54,-0.00,0.03,0.12,-1.01,0.60
6.832,-0.54,0.01,0.02,0.12,-1.01,0.60
6.833,-0.54,0.01,0.02,0.10,-0.94,0.54
6.837,-0.54,0.01,0.02,0.15,-0.87,0.48
6.838,-0.54,0.02,0.01,0.15,-0.87,0.48
6.843,-0.54,0.03,-0.00,0.15,-0.87,0.48
6.844,-0.54,0.03,-0.00,0.17,-0.78,0.42
6.847,-0.54,0.03,-0.00,0.15,-0.72,0.37
6.847,-0.55,0.04,-0.02,0.15,-0.72,0.37
6.852,-0.55,0.04,-0.02,0.08,-0.68,0.38
6.853,-0.56,0.05,-0.03,0.08,-0.68,0.38
6.857,-0.56,0.05,-0.03,0.07,-0.61,0.39
6.858,-0.57,0.06,-0.05,0.07,-0.61,0.39
6.862,-0.57,0.06,-0.05,0.02,-0.50,0.45
6.863,-0.58,0.05,-0.07,0.02,-0.50,0.45
6.867,-0.58,0.05,-0.07,0.00,-0.42,0.49
6.868,-0.59,0.04,-0.08,0.00,-0.42,0.49
6.88,-0.59,0.04,-0.08,0.01,-0.38,0.55
6.882,-0.60,0.03,-0.09,0.01,-0.38,0.55
6.883,-0.60,0.03,-0.09,0.05,-0.38,0.51
6.884,-0.61,0.01,-0.10,0.05,-0.38,0.51
6.884,-0.61,0.01,-0.11,0.05,-0.38,0.51
6.885,-0.61,0.01,-0.11,0.04,-0.35,0.56
6.889,-0.62,0.00,-0.12,0.04,-0.35,0.56
6.905,-0.62,0.00,-0.12,0.11,-0.38,0.67
6.907,-0.62,0.00,-0.12,0.16,-0.44,0.77
6.908,-0.62,-0.00,-0.13,0.16,-0.44,0.77
6.909,-0.62,-0.00,-0.13,0.21,-0.50,0.88
6.909,-0.61,-0.01,-0.13,0.21,-0.50,0.88
6.91,-0.60,-0.01,-0.14,0.21,-0.50,0.88
6.911,-0.60,-0.01,-0.14,0.29,-0.55,0.97
6.912,-0.60,-0.01,-0.14,0.39,-0.63,1.04
6.913,-0.60,-0.01,-0.14,0.39,-0.63,1.04
6.913,-0.60,-0.01,-0.14,0.49,-0.68,1.10
6.914,-0.60,-0.02,-0.15,0.49,-0.68,1.10
6.918,-0.60,-0.02,-0.15,0.58,-0.75,1.21
6.918,-0.60,-0.02,-0.15,0.58,-0.75,1.21
6.923,-0.60,-0.02,-0.14,0.58,-0.75,1.21
6.924,-0.60,-0.02,-0.14,0.68,-0.79,1.35
6.927,-0.59,-0.02,-0.14,0.68,-0.79,1.35
6.928,-0.59,-0.02,-0.14,0.73,-0.87,1.38
6.932,-0.59,-0.00,-0.14,0.73,-0.87,1.38
6.933,-0.59,-0.00,-0.14,0.73,-0.88,1.40
6.939,-0.59,-0.00,-0.14,0.72,-0.92,1.38
6.941,-0.59,0.01,-0.14,0.72,-0.92,1.38
6.943,-0.59,0.04,-0.14,0.72,-0.92,1.38
6.944,-0.59,0.04,-0.14,0.69,-0.97,1.42
6.948,-0.59,0.05,-0.13,0.69,-0.97,1.42
6.949,-0.59,0.05,-0.13,0.60,-1.02,1.52
6.953,-0.59,0.06,-0.13,0.60,-1.02,1.52
6.954,-0.59,0.06,-0.13,0.47,-1.08,1.52
6.959,-0.59,0.06,-0.13,0.36,-1.16,1.54
6.96,-0.57,0.06,-0.12,0.36,-1.16,1.54
6.963,-0.56,0.06,-0.11,0.36,-1.16,1.54
6.964,-0.56,0.06,-0.11,0.36,-1.26,1.53
6.968,-0.54,0.04,-0.10,0.36,-1.26,1.53
6.969,-0.54,0.04,-0.10,0.39,-1.40,1.43
6.973,-0.54,0.04,-0.10,0.38,-1.47,1.21
6.975,-0.51,0.02,-0.10,0.38,-1.47,1.21
6.978,-0.51,0.02,-0.10,0.36,-1.55,0.98
6.979,-0.50,0.00,-0.10,0.36,-1.55,0.98
6.983,-0.49,-0.01,-0.10,0.36,-1.55,0.98
6.984,-0.49,-0.01,-0.10,0.38,-1.53,0.94
6.989,-0.49,-0.01,-0.10,0.38,-1.53,0.94
6.991,-0.49,-0.01,-0.10,0.42,-1.56,1.09
6.993,-0.49,-0.01,-0.10,0.48,-1.49,1.31
6.994,-0.48,-0.01,-0.09,0.48,-1.49,1.31
6.999,-0.46,-0.02,-0.08,0.48,-1.49,1.31
6.999,-0.46,-0.02,-0.08,0.60,-1.44,1.48
7.003,-0.43,-0.04,-0.06,0.60,-1.44,1.48
7.004,-0.43,-0.04,-0.06,0.72,-1.45,1.45
7.009,-0.41,-0.07,-0.05,0.72,-1.45,1.45
7.01,-0.41,-0.07,-0.05,0.86,-1.46,1.26
7.013,-0.41,-0.07,-0.05,0.99,-1.41,1.02
7.014,-0.38,-0.08,-0.04,0.99,-1.41,1.02
7.018,-0.38,-0.08,-0.04,1.07,-1.46,0.76
7.019,-0.36,-0.08,-0.03,1.07,-1.46,0.76
7.033,-0.34,-0.07,-0.02,1.07,-1.46,0.76
7.035,-0.34,-0.07,-0.02,1.17,-1.53,0.59
7.053,-0.31,-0.03,-0.02,1.17,-1.53,0.59
7.055,-0.31,-0.03,-0.02,1.14,-1.61,0.50
7.056,-0.29,0.02,-0.02,1.14,-1.61,0.50
7.058,-0.29,0.02,-0.02,1.14,-1.63,0.48
7.059,-0.29,0.02,-0.02,1.06,-1.63,0.62
7.061,-0.29,0.02,-0.02,0.95,-1.52,0.75
7.063,-0.27,0.08,-0.02,0.95,-1.52,0.75
7.064,-0.24,0.11,-0.03,0.95,-1.52,0.75
7.065,-0.24,0.11,-0.03,0.83,-1.45,0.84
7.066,-0.21,0.13,-0.04,0.83,-1.45,0.84
7.067,-0.18,0.13,-0.04,0.83,-1.45,0.84
7.067,-0.18,0.13,-0.04,0.66,-1.42,0.87
7.069,-0.18,0.13,-0.04,0.55,-1.29,0.76
7.07,-0.16,0.12,-0.05,0.55,-1.29,0.76
7.07,-0.14,0.11,-0.05,0.55,-1.29,0.76
7.072,-0.14,0.11,-0.05,0.51,-1.26,0.59
7.073,-0.13,0.11,-0.06,0.51,-1.26,0.59
7.073,-0.13,0.11,-0.06,0.51,-1.33,0.42
7.074,-0.13,0.11,-0.06,0.48,-1.36,0.33
7.075,-0.12,0.12,-0.07,0.48,-1.36,0.33
7.078,-0.11,0.13,-0.09,0.48,-1.36,0.33
7.08,-0.11,0.13,-0.09,0.49,-1.36,0.26
7.084,-0.11,0.13,-0.11,0.49,-1.36,0.26
7.084,-0.11,0.13,-0.11,0.50,-1.26,0.11
7.091,-0.11,0.12,-0.13,0.50,-1.26,0.11
7.092,-0.11,0.12,-0.13,0.47,-1.19,-0.03
7.094,-0.12,0.10,-0.15,0.47,-1.19,-0.03
7.095,-0.12,0.10,-0.15,0.51,-1.11,-0.22
7.099,-0.12,0.10,-0.15,0.55,-1.08,-0.47
7.1,-0.12,0.09,-0.17,0.55,-1.08,-0.47
7.104,-0.13,0.10,-0.19,0.55,-1.08,-0.47
7.105,-0.13,0.10,-0.19,0.59,-1.06,-0.62
7.109,-0.13,0.10,-0.19,0.56,-0.97,-0.74
7.11,-0.13,0.12,-0.20,0.56,-0.97,-0.74
7.114,-0.12,0.16,-0.21,0.56,-0.97,-0.74
7.115,-0.12,0.16,-0.21,0.56,-0.90,-0.82
7.119,-0.12,0.16,-0.21,0.51,-0.87,-0.91
7.12,-0.11,0.21,-0.22,0.51,-0.87,-0.91
7.124,-0.11,0.21,-0.22,0.36,-0.87,-0.99
7.126,-0.09,0.27,-0.22,0.36,-0.87,-0.99
7.129,-0.09,0.27,-0.22,0.12,-0.86,-1.11
7.13,-0.08,0.33,-0.23,0.12,-0.86,-1.11
7.134,-0.06,0.38,-0.23,0.12,-0.86,-1.11
7.135,-0.06,0.38,-0.23,-0.13,-0.76,-1.27
7.14,-0.06,0.38,-0.23,-0.44,-0.60,-1.43
7.141,-0.06,0.41,-0.22,-0.44,-0.60,-1.43
7.144,-0.07,0.41,-0.21,-0.44,-0.60,-1.43
7.145,-0.07,0.41,-0.21,-0.78,-0.51,-1.65
7.149,-0.08,0.40,-0.20,-0.78,-0.51,-1.65
7.15,-0.08,0.40,-0.20,-1.01,-0.40,-1.77
7.164,-0.08,0.40,-0.20,-1.27,-0.28,-1.85
7.166,-0.09,0.38,-0.20,-1.27,-0.28,-1.85
7.167,-0.09,0.35,-0.19,-1.27,-0.28,-1.85
7.168,-0.09,0.35,-0.19,-1.53,-0.15,-1.85
7.169,-0.08,0.31,-0.17,-1.53,-0.15,-1.85
7.17,-0.08,0.31,-0.17,-1.76,-0.03,-1.89
7.17,-0.08,0.27,-0.15,-1.76,-0.03,-1.89
7.171,-0.08,0.27,-0.15,-1.91,0.14,-1.96
7.191,-0.08,0.27,-0.15,-1.94,0.33,-2.00
7.193,-0.07,0.23,-0.13,-1.94,0.33,-2.00
7.194,-0.08,0.17,-0.10,-1.94,0.33,-2.00
7.195,-0.08,0.17,-0.10,-1.93,0.47,-1.95
7.196,-0.08,0.11,-0.08,-1.93,0.47,-1.95
7.197,-0.08,0.11,-0.08,-1.82,0.60,-1.83
7.198,-0.08,0.05,-0.05,-1.82,0.60,-1.83
7.199,-0.08,0.05,-0.05,-1.64,0.67,-1.63
7.2,-0.06,-0.00,-0.03,-1.64,0.67,-1.63
7.201,-0.06,-0.00,-0.03,-1.33,0.63,-1.46
7.202,-0.06,-0.00,-0.03,-0.93,0.50,-1.37
7.203,-0.05,-0.06,-0.01,-0.93,0.50,-1.37
7.208,-0.03,-0.10,0.01,-0.93,0.50,-1.37
7.21,-0.03,-0.10,0.01,-0.53,0.32,-1.31
7.211,-0.02,-0.12,0.03,-0.53,0.32,-1.31
7.212,-0.02,-0.12,0.03,-0.11,0.14,-1.28
7.214,-0.02,-0.12,0.03,0.19,-0.01,-1.20
7.215,-0.00,-0.12,0.04,0.19,-0.01,-1.20
7.22,-0.00,-0.12,0.04,0.55,-0.20,-1.14
7.22,0.01,-0.12,0.04,0.55,-0.20,-1.14
7.225,0.03,-0.12,0.04,0.55,-0.20,-1.14
7.227,0.03,-0.12,0.04,0.87,-0.38,-1.05
7.23,0.04,-0.11,0.03,0.87,-0.38,-1.05
7.23,0.04,-0.11,0.03,1.14,-0.58,-0.90
7.235,0.06,-0.09,0.03,1.14,-0.58,-0.90
7.235,0.06,-0.09,0.03,1.30,-0.74,-0.85
7.24,0.09,-0.04,0.01,1.30,-0.74,-0.85
7.242,0.09,-0.04,0.01,1.39,-0.86,-0.81
7.245,0.09,-0.04,0.01,1.45,-1.04,-0.73
7.246,0.12,0.01,0.01,1.45,-1.04,-0.73
7.25,0.12,0.01,0.01,1.48,-1.20,-0.63
7.251,0.16,0.06,-0.01,1.48,-1.20,-0.63
7.256,0.16,0.06,-0.01,1.50,-1.21,-0.52
7.258,0.19,0.12,-0.02,1.50,-1.21,-0.52
7.26,0.23,0.17,-0.05,1.50,-1.21,-0.52
7.261,0.23,0.17,-0.05,1.52,-1.22,-0.39
7.265,0.23,0.17,-0.05,1.36,-1.26,-0.32
7.266,0.27,0.20,-0.08,1.36,-1.26,-0.32
7.27,0.27,0.20,-0.08,1.01,-1.35,-0.18
7.271,0.31,0.21,-0.11,1.01,-1.35,-0.18
7.275,0.31,0.21,-0.11,0.72,-1.41,-0.03
7.277,0.34,0.20,-0.14,0.72,-1.41,-0.03
7.286,0.34,0.20,-0.14,0.68,-1.43,0.08
7.287,0.38,0.18,-0.16,0.68,-1.43,0.08
7.289,0.38,0.18,-0.16,0.65,-1.45,0.11
7.291,0.43,0.17,-0.18,0.65,-1.45,0.11
7.292,0.48,0.19,-0.20,0.65,-1.45,0.11
7.293,0.48,0.19,-0.20,0.46,-1.37,0.01
7.304,0.48,0.19,-0.20,0.19,-1.22,-0.09
7.305,0.53,0.19,-0.22,0.19,-1.22,-0.09
7.307,0.53,0.19,-0.22,-0.01,-1.06,-0.19
7.308,0.56,0.20,-0.23,-0.01,-1.06,-0.19
7.309,0.56,0.20,-0.23,-0.14,-0.99,-0.19
7.309,0.60,0.19,-0.24,-0.14,-0.99,-0.19
7.311,0.63,0.17,-0.25,-0.14,-0.99,-0.19
7.311,0.63,0.17,-0.25,-0.35,-0.90,-0.16
7.316,0.63,0.17,-0.25,-0.55,-0.77,-0.15
7.317,0.66,0.14,-0.25,-0.55,-0.77,-0.15
7.32,0.66,0.14,-0.25,-0.68,-0.64,-0.14
7.321,0.70,0.10,-0.26,-0.68,-0.64,-0.14
7.333,0.73,0.07,-0.27,-0.68,-0.64,-0.14
7.334,0.73,0.07,-0.27,-0.79,-0.48,-0.19
7.335,0.76,0.04,-0.27,-0.79,-0.48,-0.19
7.336,0.76,0.04,-0.27,-0.96,-0.31,-0.28
7.336,0.76,0.04,-0.27,-1.04,-0.27,-0.33
7.338,0.77,0.01,-0.27,-1.04,-0.27,-0.33
7.341,0.77,-0.03,-0.27,-1.04,-0.27,-0.33
7.342,0.77,-0.03,-0.27,-1.03,-0.25,-0.34
7.346,0.77,-0.03,-0.27,-1.06,-0.21,-0.38
7.346,0.77,-0.05,-0.27,-1.06,-0.21,-0.38
7.35,0.77,-0.05,-0.27,-1.09,-0.10,-0.39
7.351,0.78,-0.09,-0.27,-1.09,-0.10,-0.39
7.356,0.79,-0.11,-0.27,-1.09,-0.10,-0.39
7.358,0.79,-0.11,-0.27,-1.15,0.02,-0.41
7.361,0.80,-0.12,-0.28,-1.15,0.02,-0.41
7.361,0.80,-0.12,-0.28,-1.20,0.15,-0.42
7.366,0.80,-0.14,-0.28,-1.20,0.15,-0.42
7.367,0.80,-0.14,-0.28,-1.29,0.27,-0.44
7.373,0.80,-0.14,-0.28,-1.34,0.37,-0.41
7.374,0.80,-0.15,-0.27,-1.34,0.37,-0.41
7.376,0.80,-0.15,-0.27,-1.41,0.45,-0.37
7.377,0.80,-0.17,-0.26,-1.41,0.45,-0.37
7.381,0.80,-0.17,-0.26,-1.41,0.54,-0.31
7.382,0.78,-0.18,-0.24,-1.41,0.54,-0.31
7.386,0.78,-0.18,-0.24,-1.34,0.59,-0.28
7.387,0.77,-0.19,-0.21,-1.34,0.59,-0.28
7.392,0.77,-0.19,-0.21,-1.24,0.57,-0.18
7.393,0.75,-0.19,-0.18,-1.24,0.57,-0.18
7.396,0.74,-0.19,-0.15,-1.24,0.57,-0.18
7.397,0.74,-0.19,-0.15,-1.10,0.56,-0.12
7.401,0.71,-0.19,-0.13,-1.10,0.56,-0.12
7.402,0.71,-0.19,-0.13,-0.91,0.56,-0.02
7.407,0.71,-0.19,-0.13,-0.83,0.57,0.04
7.409,0.70,-0.19,-0.12,-0.83,0.57,0.04
7.411,0.70,-0.19,-0.12,-0.95,0.65,0.09
7.412,0.68,-0.20,-0.10,-0.95,0.65,0.09
7.416,0.67,-0.21,-0.09,-0.95,0.65,0.09
7.417,0.67,-0.21,-0.09,-1.07,0.58,0.20
7.421,0.66,-0.22,-0.07,-1.07,0.58,0.20
7.422,0.66,-0.22,-0.07,-0.82,0.21,0.43
7.437,0.66,-0.20,-0.05,-0.82,0.21,0.43
7.438,0.66,-0.20,-0.05,-0.61,0.06,0.45
7.443,0.67,-0.18,-0.03,-0.61,0.06,0.45
7.444,0.67,-0.18,-0.03,-0.53,0.06,0.36
7.445,0.67,-0.17,-0.00,-0.53,0.06,0.36
7.446,0.67,-0.17,-0.00,-0.41,0.02,0.28
7.45,0.67,-0.16,0.01,-0.41,0.02,0.28
7.45,0.67,-0.16,0.01,-0.31,-0.04,0.35
7.452,0.67,-0.16,0.01,-0.43,-0.11,0.40
7.453,0.67,-0.14,0.03,-0.43,-0.11,0.40
7.454,0.68,-0.10,0.05,-0.43,-0.11,0.40
7.455,0.68,-0.10,0.05,-0.52,-0.11,0.43
7.457,0.68,-0.09,0.06,-0.52,-0.11,0.43
7.457,0.68,-0.09,0.06,-0.65,-0.14,0.49
7.461,0.68,-0.11,0.08,-0.65,-0.14,0.49
7.463,0.68,-0.11,0.08,-0.71,-0.16,0.57
7.467,0.68,-0.12,0.10,-0.71,-0.16,0.57
7.468,0.68,-0.12,0.10,-0.74,-0.20,0.64
7.473,0.68,-0.12,0.10,-0.72,-0.24,0.68
7.474,0.69,-0.13,0.12,-0.72,-0.24,0.68
7.476,0.69,-0.13,0.12,-0.70,-0.33,0.68
7.477,0.69,-0.13,0.13,-0.70,-0.33,0.68
7.481,0.69,-0.13,0.13,-0.67,-0.36,0.75
7.482,0.70,-0.13,0.14,-0.67,-0.36,0.75
7.487,0.70,-0.13,0.14,-0.70,-0.41,0.89
7.488,0.71,-0.13,0.14,-0.70,-0.41,0.89
7.492,0.71,-0.13,0.14,-0.74,-0.43,0.95
7.494,0.72,-0.14,0.15,-0.74,-0.43,0.95
7.497,0.73,-0.15,0.16,-0.74,-0.43,0.95
7.497,0.73,-0.15,0.16,-0.77,-0.43,1.01
7.502,0.74,-0.16,0.16,-0.77,-0.43,1.01
7.503,0.74,-0.16,0.16,-0.75,-0.41,1.07
7.507,0.74,-0.18,0.16,-0.75,-0.41,1.07
7.509,0.74,-0.18,0.16,-0.73,-0.36,1.09
7.512,0.75,-0.20,0.17,-0.73,-0.36,1.09
7.512,0.75,-0.20,0.17,-0.75,-0.40,1.10
7.517,0.76,-0.22,0.17,-0.75,-0.40,1.10
7.518,0.76,-0.22,0.17,-0.74,-0.40,1.03
7.522,0.76,-0.22,0.17,-0.64,-0.32,1.03
7.524,0.76,-0.24,0.17,-0.64,-0.32,1.03
7.527,0.77,-0.27,0.16,-0.64,-0.32,1.03
7.528,0.77,-0.27,0.16,-0.58,-0.27,1.03
7.536,0.78,-0.31,0.16,-0.58,-0.27,1.03
7.537,0.78,-0.31,0.16,-0.45,-0.19,0.99
7.544,0.78,-0.31,0.16,-0.35,-0.14,0.97
7.545,0.79,-0.34,0.15,-0.35,-0.14,0.97
7.546,0.79,-0.34,0.15,-0.27,-0.10,0.88
7.547,0.80,-0.35,0.14,-0.27,-0.10,0.88
7.548,0.80,-0.34,0.14,-0.27,-0.10,0.88
7.549,0.80,-0.34,0.14,-0.22,0.01,0.85
7.553,0.80,-0.34,0.14,-0.14,0.14,0.85
7.553,0.81,-0.34,0.13,-0.14,0.14,0.85
7.563,0.81,-0.33,0.12,-0.14,0.14,0.85
7.564,0.81,-0.33,0.12,-0.04,0.18,0.87
7.565,0.81,-0.33,0.12,0.05,0.24,0.84
7.566,0.81,-0.33,0.12,0.05,0.24,0.84
7.569,0.80,-0.32,0.11,0.05,0.24,0.84
7.571,0.80,-0.32,0.11,0.08,0.35,0.78
7.586,0.80,-0.32,0.11,0.10,0.40,0.79
7.587,0.79,-0.30,0.11,0.10,0.40,0.79
7.588,0.78,-0.29,0.11,0.10,0.40,0.79
7.589,0.78,-0.29,0.11,0.08,0.48,0.78
7.589,0.78,-0.29,0.11,0.05,0.50,0.75
7.59,0.77,-0.27,0.11,0.05,0.50,0.75
7.591,0.77,-0.27,0.11,0.03,0.54,0.66
7.591,0.77,-0.25,0.10,0.03,0.54,0.66
7.592,0.77,-0.25,0.10,-0.01,0.52,0.62
7.593,0.77,-0.22,0.10,-0.01,0.52,0.62
7.598,0.77,-0.22,0.10,-0.05,0.57,0.62
7.598,0.76,-0.20,0.10,-0.05,0.57,0.62
7.602,0.76,-0.20,0.10,-0.15,0.55,0.62
7.603,0.76,-0.18,0.10,-0.15,0.55,0.62
7.608,0.75,-0.17,0.09,-0.15,0.55,0.62
7.609,0.75,-0.17,0.09,-0.25,0.61,0.62
7.612,0.75,-0.17,0.09,-0.25,0.61,0.62
7.613,0.75,-0.17,0.09,-0.28,0.69,0.57
7.618,0.74,-0.17,0.08,-0.28,0.69,0.57
7.619,0.74,-0.17,0.08,-0.31,0.75,0.56
7.622,0.74,-0.17,0.08,-0.35,0.72,0.53
7.624,0.73,-0.18,0.08,-0.35,0.72,0.53
7.628,0.73,-0.19,0.08,-0.35,0.72,0.53
7.629,0.73,-0.19,0.08,-0.37,0.70,0.59
7.633,0.73,-0.20,0.08,-0.37,0.70,0.59
7.634,0.73,-0.20,0.08,-0.38,0.58,0.75
7.638,0.73,-0.20,0.08,-0.29,0.44,0.87
7.64,0.74,-0.20,0.08,-0.29,0.44,0.87
7.643,0.75,-0.19,0.08,-0.29,0.44,0.87
7.644,0.75,-0.19,0.08,-0.19,0.32,0.94
7.648,0.77,-0.19,0.08,-0.19,0.32,0.94
7.649,0.77,-0.19,0.08,-0.08,0.23,0.98
7.653,0.79,-0.17,0.08,-0.08,0.23,0.98
7.654,0.79,-0.17,0.08,-0.03,0.15,1.00
7.658,0.79,-0.17,0.08,0.04,-0.01,0.96
7.659,0.80,-0.16,0.08,0.04,-0.01,0.96
7.663,0.80,-0.16,0.08,0.15,-0.17,0.99
7.664,0.82,-0.13,0.09,0.15,-0.17,0.99
7.669,0.84,-0.10,0.10,0.15,-0.17,0.99
7.669,0.84,-0.10,0.10,0.27,-0.32,1.14
7.68,0.84,-0.10,0.10,0.37,-0.47,1.22
7.682,0.87,-0.05,0.11,0.37,-0.47,1.22
7.689,0.87,-0.05,0.11,0.53,-0.63,1.34
7.69,0.91,-0.00,0.12,0.53,-0.63,1.34
7.691,0.95,0.03,0.13,0.53,-0.63,1.34
7.692,0.95,0.03,0.13,0.70,-0.81,1.36
7.694,1.00,0.05,0.13,0.70,-0.81,1.36
7.695,1.00,0.05,0.13,0.95,-1.01,1.24
7.696,1.04,0.05,0.14,0.95,-1.01,1.24
7.697,1.04,0.05,0.14,1.24,-1.34,1.04
