
time,ax,ay,az,wx,wy,wz
0.003,0.48,0.09,-1.00,-0.05,-0.15,0.24
0.003,0.48,0.09,-1.00,-0.08,-0.14,0.22
0.004,0.48,0.09,-1.00,-0.10,-0.12,0.21
0.004,0.56,0.12,-1.03,-0.10,-0.12,0.21
0.004,0.56,0.12,-1.03,-0.13,-0.11,0.20
0.005,0.56,0.12,-1.03,-0.16,-0.10,0.18
0.005,0.61,0.14,-1.05,-0.16,-0.10,0.18
0.005,0.61,0.14,-1.05,-0.18,-0.08,0.17
0.005,0.61,0.14,-1.05,-0.21,-0.07,0.16
0.005,0.64,0.14,-1.06,-0.21,-0.07,0.16
0.005,0.64,0.14,-1.06,-0.24,-0.05,0.15
0.006,0.64,0.14,-1.06,-0.26,-0.05,0.13
0.009,0.65,0.15,-1.07,-0.26,-0.05,0.13
0.009,0.65,0.15,-1.07,-0.29,-0.03,0.12
0.01,0.65,0.15,-1.07,-0.31,-0.02,0.11
0.014,0.59,0.16,-1.04,-0.31,-0.02,0.11
0.014,0.59,0.16,-1.04,-0.34,-0.01,0.10
0.015,0.59,0.16,-1.04,-0.36,-0.00,0.09
0.016,0.51,0.15,-0.91,-0.36,-0.00,0.09
0.017,0.51,0.15,-0.91,-0.38,0.02,0.08
0.018,0.51,0.15,-0.91,-0.40,0.03,0.07
0.02,0.51,0.15,-0.91,-0.41,0.04,0.07
0.021,0.39,0.14,-0.70,-0.41,0.04,0.07
0.022,0.39,0.14,-0.70,-0.43,0.05,0.06
0.033,0.29,0.09,-0.44,-0.43,0.05,0.06
0.033,0.29,0.09,-0.44,-0.44,0.07,0.06
0.034,0.29,0.09,-0.44,-0.45,0.08,0.06
0.034,0.19,0.05,-0.16,-0.45,0.08,0.06
0.034,0.19,0.05,-0.16,-0.45,0.10,0.07
0.034,0.19,0.05,-0.16,-0.45,0.11,0.07
0.034,0.19,0.05,-0.16,-0.45,0.12,0.07
0.035,0.07,-0.02,0.13,-0.45,0.12,0.07
0.035,0.07,-0.02,0.13,-0.45,0.14,0.08
0.036,-0.03,-0.07,0.40,-0.45,0.14,0.08
0.037,-0.03,-0.07,0.40,-0.44,0.15,0.08
0.038,-0.03,-0.07,0.40,-0.43,0.16,0.09
0.042,-0.11,-0.12,0.64,-0.43,0.16,0.09
0.042,-0.11,-0.12,0.64,-0.42,0.17,0.09
0.042,-0.11,-0.12,0.64,-0.40,0.17,0.10
0.048,-0.18,-0.15,0.85,-0.40,0.17,0.10
0.048,-0.18,-0.15,0.85,-0.38,0.17,0.11
0.049,-0.18,-0.15,0.85,-0.36,0.18,0.12
0.049,-0.23,-0.17,0.99,-0.36,0.18,0.12
0.049,-0.23,-0.17,0.99,-0.34,0.18,0.13
0.05,-0.23,-0.17,0.99,-0.32,0.17,0.13
0.052,-0.27,-0.19,1.09,-0.32,0.17,0.13
0.053,-0.27,-0.19,1.09,-0.30,0.16,0.14
0.054,-0.27,-0.19,1.09,-0.28,0.16,0.15
0.056,-0.28,-0.20,1.11,-0.28,0.16,0.15
0.057,-0.28,-0.20,1.11,-0.25,0.15,0.16
0.059,-0.28,-0.20,1.11,-0.23,0.13,0.17
0.061,-0.28,-0.20,1.11,-0.20,0.12,0.18
0.062,-0.26,-0.20,1.06,-0.20,0.12,0.18
0.062,-0.26,-0.20,1.06,-0.18,0.10,0.18
0.064,-0.24,-0.16,0.94,-0.18,0.10,0.18
0.065,-0.24,-0.16,0.94,-0.16,0.07,0.19
0.066,-0.24,-0.16,0.94,-0.13,0.05,0.19
0.068,-0.19,-0.09,0.79,-0.13,0.05,0.19
0.068,-0.19,-0.09,0.79,-0.11,0.01,0.19
0.07,-0.19,-0.09,0.79,-0.09,-0.01,0.19
0.072,-0.15,-0.01,0.62,-0.09,-0.01,0.19
0.073,-0.15,-0.01,0.62,-0.07,-0.04,0.19
0.074,-0.15,-0.01,0.62,-0.06,-0.07,0.19
0.077,-0.15,-0.01,0.62,-0.04,-0.10,0.19
0.077,-0.08,0.04,0.41,-0.04,-0.10,0.19
0.079,-0.08,0.04,0.41,-0.03,-0.13,0.19
0.081,-0.04,0.06,0.19,-0.03,-0.13,0.19
0.081,-0.04,0.06,0.19,-0.02,-0.15,0.19
0.082,-0.04,0.06,0.19,-0.01,-0.17,0.20
0.084,-0.04,0.04,0.02,-0.01,-0.17,0.20
0.085,-0.04,0.04,0.02,-0.00,-0.20,0.20
0.086,-0.04,0.04,0.02,0.00,-0.22,0.20
0.088,-0.06,0.02,-0.16,0.00,-0.22,0.20
0.089,-0.06,0.02,-0.16,0.01,-0.24,0.20
0.091,-0.06,0.02,-0.16,0.01,-0.27,0.21
0.093,-0.10,-0.01,-0.32,0.01,-0.27,0.21
0.093,-0.10,-0.01,-0.32,0.01,-0.29,0.21
0.094,-0.10,-0.01,-0.32,0.01,-0.31,0.21
0.097,-0.12,-0.05,-0.42,0.01,-0.31,0.21
0.097,-0.12,-0.05,-0.42,0.01,-0.32,0.22
0.098,-0.12,-0.05,-0.42,0.01,-0.33,0.22
0.1,-0.13,-0.07,-0.49,0.01,-0.33,0.22
0.101,-0.13,-0.07,-0.49,0.00,-0.35,0.23
0.102,-0.13,-0.07,-0.49,0.00,-0.35,0.23
0.104,-0.15,-0.11,-0.52,0.00,-0.35,0.23
0.105,-0.15,-0.11,-0.52,-0.00,-0.36,0.24
0.106,-0.15,-0.11,-0.52,-0.01,-0.37,0.24
0.11,-0.15,-0.13,-0.51,-0.01,-0.37,0.24
0.111,-0.15,-0.13,-0.51,-0.01,-0.37,0.25
0.111,-0.15,-0.13,-0.51,-0.03,-0.37,0.25
0.114,-0.15,-0.12,-0.53,-0.03,-0.37,0.25
0.115,-0.15,-0.12,-0.53,-0.03,-0.37,0.26
0.115,-0.15,-0.12,-0.53,-0.04,-0.37,0.26
0.116,-0.10,-0.09,-0.51,-0.04,-0.37,0.26
0.117,-0.10,-0.09,-0.51,-0.05,-0.37,0.26
0.118,-0.10,-0.09,-0.51,-0.05,-0.37,0.27
0.12,-0.10,-0.09,-0.51,-0.05,-0.36,0.27
0.121,-0.02,-0.05,-0.48,-0.05,-0.36,0.27
0.122,-0.02,-0.05,-0.48,-0.06,-0.36,0.26
0.134,0.12,-0.01,-0.41,-0.06,-0.36,0.26
0.137,0.12,-0.01,-0.41,-0.07,-0.36,0.26
0.137,0.12,-0.01,-0.41,-0.07,-0.35,0.25
0.138,0.23,0.02,-0.33,-0.07,-0.35,0.25
0.138,0.23,0.02,-0.33,-0.08,-0.34,0.25
0.138,0.23,0.02,-0.33,-0.08,-0.33,0.25
0.138,0.23,0.02,-0.33,-0.09,-0.33,0.24
0.139,0.34,0.01,-0.27,-0.09,-0.33,0.24
0.139,0.34,0.01,-0.27,-0.09,-0.31,0.24
0.139,0.42,-0.02,-0.22,-0.09,-0.31,0.24
0.14,0.42,-0.02,-0.22,-0.09,-0.31,0.23
0.14,0.42,-0.02,-0.22,-0.10,-0.29,0.22
0.143,0.46,-0.03,-0.17,-0.10,-0.29,0.22
0.143,0.46,-0.03,-0.17,-0.10,-0.28,0.22
0.144,0.46,-0.03,-0.17,-0.10,-0.27,0.21
0.16,0.49,-0.04,-0.13,-0.10,-0.27,0.21
0.16,0.49,-0.04,-0.13,-0.10,-0.26,0.20
0.161,0.49,-0.04,-0.13,-0.11,-0.25,0.19
0.161,0.49,-0.04,-0.13,-0.11,-0.24,0.18
0.161,0.51,-0.01,-0.11,-0.11,-0.24,0.18
0.161,0.51,-0.01,-0.11,-0.11,-0.23,0.18
0.161,0.52,0.02,-0.08,-0.11,-0.23,0.18
0.162,0.52,0.02,-0.08,-0.11,-0.22,0.17
0.162,0.52,0.02,-0.08,-0.12,-0.21,0.16
0.162,0.54,0.02,-0.07,-0.12,-0.21,0.16
0.162,0.54,0.02,-0.07,-0.12,-0.20,0.15
0.162,0.54,0.02,-0.07,-0.12,-0.20,0.14
0.163,0.54,0.02,-0.07,-0.12,-0.19,0.14
0.163,0.54,0.02,-0.05,-0.12,-0.19,0.14
0.163,0.54,0.02,-0.05,-0.13,-0.18,0.13
0.168,0.58,0.02,-0.02,-0.13,-0.18,0.13
0.168,0.58,0.02,-0.02,-0.13,-0.18,0.12
0.168,0.58,0.02,-0.02,-0.13,-0.17,0.11
0.169,0.61,0.03,-0.02,-0.13,-0.17,0.11
0.169,0.61,0.03,-0.02,-0.13,-0.16,0.10
0.17,0.61,0.03,-0.02,-0.13,-0.16,0.09
0.172,0.64,0.04,0.01,-0.13,-0.16,0.09
0.172,0.64,0.04,0.01,-0.13,-0.15,0.08
0.174,0.64,0.04,0.01,-0.14,-0.14,0.07
0.176,0.66,0.04,0.05,-0.14,-0.14,0.07
0.176,0.66,0.04,0.05,-0.14,-0.14,0.05
0.178,0.66,0.04,0.05,-0.13,-0.13,0.05
0.181,0.66,0.04,0.05,-0.13,-0.13,0.03
0.181,0.66,0.05,0.05,-0.13,-0.13,0.03
0.182,0.66,0.05,0.05,-0.14,-0.12,0.03
0.184,0.63,0.06,0.06,-0.14,-0.12,0.03
0.184,0.63,0.06,0.06,-0.14,-0.11,0.01
0.186,0.63,0.06,0.06,-0.14,-0.11,0.00
0.188,0.60,0.07,0.04,-0.14,-0.11,0.00
0.188,0.60,0.07,0.04,-0.14,-0.11,-0.01
0.19,0.60,0.07,0.04,-0.14,-0.10,-0.01
0.192,0.54,0.08,0.02,-0.14,-0.10,-0.01
0.192,0.54,0.08,0.02,-0.14,-0.10,-0.02
0.194,0.54,0.08,0.02,-0.15,-0.09,-0.03
0.196,0.54,0.08,0.02,-0.15,-0.08,-0.04
0.197,0.50,0.08,-0.01,-0.15,-0.08,-0.04
0.198,0.50,0.08,-0.01,-0.15,-0.07,-0.05
0.2,0.50,0.08,-0.01,-0.16,-0.07,-0.05
0.2,0.44,0.11,-0.03,-0.16,-0.07,-0.05
0.202,0.44,0.11,-0.03,-0.16,-0.06,-0.06
0.204,0.42,0.08,-0.08,-0.16,-0.06,-0.06
0.204,0.42,0.08,-0.08,-0.17,-0.05,-0.06
0.206,0.42,0.08,-0.08,-0.17,-0.05,-0.07
0.208,0.41,0.06,-0.09,-0.17,-0.05,-0.07
0.209,0.41,0.06,-0.09,-0.17,-0.04,-0.07
0.21,0.41,0.06,-0.09,-0.18,-0.03,-0.07
0.212,0.40,0.01,-0.11,-0.18,-0.03,-0.07
0.213,0.40,0.01,-0.11,-0.19,-0.02,-0.08
0.214,0.40,0.01,-0.11,-0.19,-0.02,-0.08
0.216,0.37,-0.03,-0.09,-0.19,-0.02,-0.08
0.216,0.37,-0.03,-0.09,-0.19,-0.01,-0.08
0.217,0.37,-0.03,-0.09,-0.20,-0.00,-0.09
0.22,0.37,-0.03,-0.09,-0.20,-0.00,-0.09
0.22,0.30,-0.04,-0.08,-0.20,-0.00,-0.09
0.222,0.30,-0.04,-0.08,-0.20,0.00,-0.09
0.234,0.22,-0.05,-0.04,-0.20,0.00,-0.09
0.235,0.22,-0.05,-0.04,-0.20,0.00,-0.09
0.235,0.22,-0.05,-0.04,-0.20,-0.00,-0.09
0.236,0.13,-0.04,0.02,-0.20,-0.00,-0.09
0.236,0.13,-0.04,0.02,-0.20,-0.00,-0.09
0.236,0.13,-0.04,0.02,-0.20,-0.00,-0.09
0.237,0.03,-0.03,0.09,-0.20,-0.00,-0.09
0.237,0.03,-0.03,0.09,-0.19,-0.01,-0.09
0.237,0.03,-0.03,0.09,-0.19,-0.01,-0.08
0.237,0.03,-0.03,0.09,-0.18,-0.02,-0.08
0.238,-0.04,-0.02,0.15,-0.18,-0.02,-0.08
0.238,-0.04,-0.02,0.15,-0.17,-0.03,-0.08
0.241,-0.04,-0.02,0.15,-0.16,-0.03,-0.07
0.242,-0.08,0.01,0.25,-0.16,-0.03,-0.07
0.242,-0.08,0.01,0.25,-0.15,-0.04,-0.07
0.244,-0.08,0.01,0.25,-0.14,-0.05,-0.07
0.245,-0.12,-0.02,0.30,-0.14,-0.05,-0.07
0.246,-0.12,-0.02,0.30,-0.13,-0.05,-0.06
0.248,-0.12,-0.02,0.30,-0.12,-0.06,-0.06
0.248,-0.09,-0.03,0.35,-0.12,-0.06,-0.06
0.25,-0.09,-0.03,0.35,-0.11,-0.06,-0.06
0.252,-0.09,-0.03,0.35,-0.10,-0.07,-0.05
0.252,-0.04,-0.06,0.38,-0.10,-0.07,-0.05
0.254,-0.04,-0.06,0.38,-0.09,-0.07,-0.05
0.256,-0.04,-0.06,0.38,-0.08,-0.08,-0.05
0.257,-0.04,-0.08,0.40,-0.08,-0.08,-0.05
0.259,-0.04,-0.08,0.40,-0.07,-0.08,-0.05
0.263,-0.04,-0.08,0.40,-0.06,-0.08,-0.05
0.264,-0.02,-0.09,0.39,-0.06,-0.08,-0.05
0.264,-0.02,-0.09,0.39,-0.05,-0.08,-0.05
0.265,-0.02,-0.09,0.39,-0.04,-0.09,-0.05
0.265,-0.03,-0.06,0.40,-0.04,-0.09,-0.05
0.266,-0.03,-0.06,0.40,-0.03,-0.09,-0.05
0.268,-0.03,-0.06,0.40,-0.02,-0.09,-0.05
0.268,-0.02,-0.04,0.41,-0.02,-0.09,-0.05
0.27,-0.02,-0.04,0.41,-0.02,-0.09,-0.05
0.272,-0.02,-0.04,0.41,-0.01,-0.09,-0.04
0.272,-0.02,-0.01,0.41,-0.01,-0.09,-0.04
0.274,-0.02,-0.01,0.41,-0.01,-0.09,-0.04
0.276,-0.02,-0.01,0.41,0.00,-0.09,-0.04
0.276,-0.01,0.01,0.36,0.00,-0.09,-0.04
0.278,-0.01,0.01,0.36,0.00,-0.09,-0.04
0.28,-0.01,0.01,0.36,0.00,-0.08,-0.04
0.281,0.03,0.02,0.31,0.00,-0.08,-0.04
0.282,0.03,0.02,0.31,0.00,-0.07,-0.04
0.284,0.03,0.02,0.31,0.00,-0.07,-0.04
0.284,0.05,-0.01,0.22,0.00,-0.07,-0.04
0.286,0.05,-0.01,0.22,0.00,-0.07,-0.04
0.288,0.05,-0.01,0.22,-0.00,-0.06,-0.05
0.288,0.06,-0.02,0.12,-0.00,-0.06,-0.05
0.29,0.06,-0.02,0.12,-0.01,-0.06,-0.04
0.292,0.06,-0.02,0.12,-0.01,-0.06,-0.05
0.293,0.06,-0.04,0.05,-0.01,-0.06,-0.05
0.294,0.06,-0.04,0.05,-0.01,-0.06,-0.05
0.296,0.06,-0.04,0.05,-0.02,-0.05,-0.05
0.297,0.04,-0.01,-0.02,-0.02,-0.05,-0.05
0.298,0.04,-0.01,-0.02,-0.02,-0.05,-0.05
0.3,0.04,-0.01,-0.02,-0.03,-0.05,-0.05
0.301,0.03,0.02,-0.05,-0.03,-0.05,-0.05
0.301,0.03,0.02,-0.05,-0.03,-0.05,-0.05
0.304,0.03,0.02,-0.05,-0.04,-0.05,-0.05
0.304,0.03,0.06,-0.10,-0.04,-0.05,-0.05
0.305,0.03,0.06,-0.10,-0.05,-0.05,-0.05
0.308,0.03,0.06,-0.10,-0.05,-0.05,-0.05
0.308,0.05,0.09,-0.14,-0.05,-0.05,-0.05
0.309,0.05,0.09,-0.14,-0.06,-0.05,-0.05
0.312,0.05,0.09,-0.14,-0.07,-0.04,-0.06
0.312,0.06,0.07,-0.17,-0.07,-0.04,-0.06
0.314,0.06,0.07,-0.17,-0.07,-0.04,-0.06
0.316,0.06,0.07,-0.17,-0.08,-0.04,-0.06
0.316,0.09,0.05,-0.20,-0.08,-0.04,-0.06
0.317,0.09,0.05,-0.20,-0.09,-0.03,-0.06
0.32,0.09,0.05,-0.20,-0.10,-0.03,-0.06
0.32,0.10,0.03,-0.19,-0.10,-0.03,-0.06
0.321,0.10,0.03,-0.19,-0.10,-0.03,-0.06
0.325,0.10,0.03,-0.19,-0.11,-0.02,-0.07
0.325,0.11,-0.01,-0.18,-0.11,-0.02,-0.07
0.325,0.11,-0.01,-0.18,-0.12,-0.02,-0.07
0.328,0.11,-0.01,-0.18,-0.12,-0.02,-0.07
0.328,0.12,-0.03,-0.12,-0.12,-0.02,-0.07
0.329,0.12,-0.03,-0.12,-0.12,-0.02,-0.07
0.332,0.12,-0.03,-0.12,-0.12,-0.02,-0.07
0.332,0.08,-0.01,-0.06,-0.12,-0.02,-0.07
0.333,0.08,-0.01,-0.06,-0.12,-0.02,-0.07
0.336,0.08,-0.01,-0.06,-0.12,-0.03,-0.07
0.336,0.04,-0.00,0.03,-0.12,-0.03,-0.07
0.337,0.04,-0.00,0.03,-0.12,-0.03,-0.07
0.34,0.04,-0.00,0.03,-0.11,-0.03,-0.07
0.34,-0.00,0.01,0.11,-0.11,-0.03,-0.07
0.342,-0.00,0.01,0.11,-0.11,-0.03,-0.07
0.344,-0.00,0.01,0.11,-0.11,-0.04,-0.07
0.344,-0.00,0.03,0.13,-0.11,-0.04,-0.07
0.346,-0.00,0.03,0.13,-0.11,-0.04,-0.06
0.348,-0.00,0.03,0.13,-0.10,-0.04,-0.06
0.348,-0.02,0.00,0.14,-0.10,-0.04,-0.06
0.35,-0.02,0.00,0.14,-0.10,-0.04,-0.06
0.352,-0.02,0.00,0.14,-0.10,-0.04,-0.06
0.352,-0.03,-0.04,0.11,-0.10,-0.04,-0.06
0.353,-0.03,-0.04,0.11,-0.09,-0.05,-0.05
0.355,-0.03,-0.04,0.11,-0.09,-0.05,-0.05
0.356,-0.03,-0.07,0.07,-0.09,-0.05,-0.05
0.368,-0.03,-0.07,0.07,-0.09,-0.06,-0.05
0.369,-0.03,-0.07,0.07,-0.09,-0.06,-0.05
0.369,-0.05,-0.09,0.05,-0.09,-0.06,-0.05
0.37,-0.05,-0.09,0.05,-0.08,-0.07,-0.05
0.37,-0.05,-0.09,0.05,-0.08,-0.08,-0.04
0.37,-0.07,-0.08,0.02,-0.08,-0.08,-0.04
0.371,-0.07,-0.08,0.02,-0.08,-0.09,-0.04
0.371,-0.07,-0.08,0.02,-0.07,-0.10,-0.03
0.371,-0.06,-0.06,0.02,-0.07,-0.10,-0.03
0.372,-0.06,-0.06,0.02,-0.07,-0.11,-0.04
0.372,-0.06,-0.06,0.02,-0.07,-0.12,-0.03
0.372,-0.08,-0.03,0.03,-0.07,-0.12,-0.03
0.373,-0.08,-0.03,0.03,-0.07,-0.12,-0.03
0.375,-0.08,-0.03,0.03,-0.06,-0.13,-0.02
0.376,-0.06,-0.03,0.01,-0.06,-0.13,-0.02
0.377,-0.06,-0.03,0.01,-0.06,-0.14,-0.02
0.38,-0.06,-0.03,0.01,-0.06,-0.14,-0.02
0.381,-0.03,-0.04,0.00,-0.06,-0.14,-0.02
0.381,-0.03,-0.04,0.00,-0.06,-0.14,-0.02
0.384,-0.03,-0.04,0.00,-0.06,-0.14,-0.02
0.384,-0.01,-0.02,-0.01,-0.06,-0.14,-0.02
0.385,-0.01,-0.02,-0.01,-0.06,-0.15,-0.01
0.388,-0.01,-0.02,-0.01,-0.06,-0.15,-0.01
0.388,0.03,-0.03,-0.00,-0.06,-0.15,-0.01
0.389,0.03,-0.03,-0.00,-0.06,-0.16,-0.01
0.392,0.03,-0.03,-0.00,-0.06,-0.16,-0.01
0.393,0.07,-0.03,0.01,-0.06,-0.16,-0.01
0.401,0.07,-0.03,0.01,-0.06,-0.16,-0.02
0.402,0.07,-0.03,0.01,-0.06,-0.17,-0.01
0.402,0.09,-0.04,0.02,-0.06,-0.17,-0.01
0.403,0.09,-0.04,0.02,-0.06,-0.17,-0.02
0.403,0.09,-0.04,0.02,-0.06,-0.18,-0.01
0.403,0.09,-0.02,0.03,-0.06,-0.18,-0.01
0.403,0.09,-0.02,0.03,-0.06,-0.18,-0.02
0.404,0.09,-0.02,0.03,-0.05,-0.19,-0.02
0.404,0.08,0.01,0.02,-0.05,-0.19,-0.02
0.405,0.08,0.01,0.02,-0.05,-0.20,-0.02
0.413,0.08,0.01,0.02,-0.05,-0.20,-0.02
0.414,0.07,0.04,0.01,-0.05,-0.20,-0.02
0.414,0.07,0.04,0.01,-0.05,-0.21,-0.02
0.415,0.07,0.04,0.01,-0.05,-0.22,-0.02
0.415,0.07,0.06,-0.02,-0.05,-0.22,-0.02
0.415,0.07,0.06,-0.02,-0.04,-0.22,-0.02
0.416,0.07,0.06,-0.02,-0.05,-0.23,-0.02
0.416,0.06,0.08,-0.07,-0.05,-0.23,-0.02
0.417,0.06,0.08,-0.07,-0.05,-0.23,-0.03
0.42,0.06,0.08,-0.07,-0.05,-0.24,-0.03
0.42,0.11,0.09,-0.13,-0.05,-0.24,-0.03
0.421,0.11,0.09,-0.13,-0.05,-0.24,-0.03
0.425,0.11,0.09,-0.13,-0.05,-0.25,-0.03
0.425,0.14,0.07,-0.18,-0.05,-0.25,-0.03
0.426,0.14,0.07,-0.18,-0.05,-0.25,-0.03
0.427,0.14,0.07,-0.18,-0.06,-0.25,-0.03
0.428,0.15,0.03,-0.24,-0.06,-0.25,-0.03
0.429,0.15,0.03,-0.24,-0.06,-0.26,-0.04
0.431,0.15,0.03,-0.24,-0.07,-0.26,-0.03
0.432,0.14,-0.02,-0.27,-0.07,-0.26,-0.03
0.433,0.14,-0.02,-0.27,-0.07,-0.26,-0.03
0.435,0.14,-0.02,-0.27,-0.07,-0.27,-0.03
0.435,0.13,-0.05,-0.30,-0.07,-0.27,-0.03
0.437,0.13,-0.05,-0.30,-0.08,-0.27,-0.03
0.439,0.13,-0.05,-0.30,-0.08,-0.28,-0.03
0.44,0.09,-0.09,-0.29,-0.08,-0.28,-0.03
0.441,0.09,-0.09,-0.29,-0.08,-0.28,-0.02
0.443,0.09,-0.09,-0.29,-0.08,-0.29,-0.02
0.443,0.00,-0.08,-0.24,-0.08,-0.29,-0.02
0.445,0.00,-0.08,-0.24,-0.08,-0.30,-0.01
0.447,0.00,-0.08,-0.24,-0.08,-0.31,-0.01
0.448,-0.10,-0.09,-0.16,-0.08,-0.31,-0.01
0.449,-0.10,-0.09,-0.16,-0.07,-0.32,-0.00
0.451,-0.10,-0.09,-0.16,-0.07,-0.34,0.01
0.451,-0.18,-0.08,-0.07,-0.07,-0.34,0.01
0.453,-0.18,-0.08,-0.07,-0.06,-0.35,0.01
0.455,-0.18,-0.08,-0.07,-0.05,-0.36,0.02
0.455,-0.23,-0.07,-0.03,-0.05,-0.36,0.02
0.464,-0.23,-0.07,-0.03,-0.05,-0.37,0.03
0.464,-0.23,-0.07,-0.03,-0.04,-0.39,0.04
0.465,-0.23,-0.05,0.02,-0.04,-0.39,0.04
0.465,-0.23,-0.05,0.02,-0.03,-0.40,0.04
0.465,-0.23,-0.05,0.02,-0.03,-0.41,0.05
0.466,-0.19,-0.07,0.01,-0.03,-0.41,0.05
0.466,-0.19,-0.07,0.01,-0.03,-0.42,0.05
0.467,-0.19,-0.07,0.01,-0.02,-0.44,0.06
0.468,-0.09,-0.09,-0.03,-0.02,-0.44,0.06
0.469,-0.09,-0.09,-0.03,-0.02,-0.45,0.07
0.471,-0.09,-0.09,-0.03,-0.02,-0.46,0.07
0.472,-0.00,-0.10,-0.08,-0.02,-0.46,0.07
0.473,-0.00,-0.10,-0.08,-0.02,-0.47,0.07
0.485,-0.00,-0.10,-0.08,-0.02,-0.48,0.08
0.485,0.08,-0.14,-0.13,-0.02,-0.48,0.08
0.486,0.08,-0.14,-0.13,-0.02,-0.48,0.08
0.486,0.08,-0.14,-0.13,-0.02,-0.49,0.08
0.486,0.13,-0.15,-0.15,-0.02,-0.49,0.08
0.487,0.13,-0.15,-0.15,-0.02,-0.50,0.08
0.487,0.13,-0.15,-0.15,-0.02,-0.50,0.09
0.487,0.17,-0.16,-0.14,-0.02,-0.50,0.09
0.488,0.17,-0.16,-0.14,-0.03,-0.51,0.09
0.488,0.17,-0.16,-0.14,-0.03,-0.52,0.09
0.488,0.22,-0.13,-0.15,-0.03,-0.52,0.09
0.489,0.22,-0.13,-0.15,-0.03,-0.52,0.09
0.491,0.22,-0.13,-0.15,-0.04,-0.52,0.09
0.492,0.26,-0.10,-0.15,-0.04,-0.52,0.09
0.493,0.26,-0.10,-0.15,-0.04,-0.53,0.09
0.495,0.26,-0.10,-0.15,-0.05,-0.53,0.09
0.496,0.32,-0.08,-0.17,-0.05,-0.53,0.09
0.497,0.32,-0.08,-0.17,-0.05,-0.53,0.09
0.499,0.32,-0.08,-0.17,-0.06,-0.53,0.09
0.5,0.42,-0.06,-0.17,-0.06,-0.53,0.09
0.501,0.42,-0.06,-0.17,-0.06,-0.53,0.09
0.503,0.42,-0.06,-0.17,-0.07,-0.53,0.09
0.503,0.50,-0.04,-0.14,-0.07,-0.53,0.09
0.505,0.50,-0.04,-0.14,-0.08,-0.53,0.08
0.508,0.50,-0.04,-0.14,-0.08,-0.52,0.08
0.508,0.55,-0.04,-0.11,-0.08,-0.52,0.08
0.509,0.55,-0.04,-0.11,-0.09,-0.52,0.07
0.511,0.55,-0.04,-0.11,-0.09,-0.51,0.07
0.512,0.58,-0.03,-0.12,-0.09,-0.51,0.07
0.513,0.58,-0.03,-0.12,-0.10,-0.50,0.07
0.515,0.58,-0.03,-0.12,-0.11,-0.49,0.06
0.516,0.61,-0.03,-0.14,-0.11,-0.49,0.06
0.517,0.61,-0.03,-0.14,-0.12,-0.48,0.06
0.519,0.61,-0.03,-0.14,-0.13,-0.47,0.05
0.519,0.64,-0.04,-0.18,-0.13,-0.47,0.05
0.521,0.64,-0.04,-0.18,-0.14,-0.46,0.05
0.523,0.64,-0.04,-0.18,-0.15,-0.45,0.05
0.525,0.66,-0.08,-0.24,-0.15,-0.45,0.05
0.526,0.66,-0.08,-0.24,-0.16,-0.45,0.04
0.527,0.66,-0.08,-0.24,-0.16,-0.44,0.04
0.528,0.63,-0.13,-0.26,-0.16,-0.44,0.04
0.529,0.63,-0.13,-0.26,-0.17,-0.44,0.04
0.531,0.63,-0.13,-0.26,-0.17,-0.44,0.04
0.532,0.62,-0.17,-0.23,-0.17,-0.44,0.04
0.533,0.62,-0.17,-0.23,-0.18,-0.43,0.04
0.535,0.62,-0.17,-0.23,-0.18,-0.43,0.03
0.535,0.60,-0.21,-0.20,-0.18,-0.43,0.03
0.537,0.60,-0.21,-0.20,-0.18,-0.44,0.04
0.539,0.60,-0.21,-0.20,-0.18,-0.44,0.03
0.539,0.57,-0.23,-0.15,-0.18,-0.44,0.03
0.541,0.57,-0.23,-0.15,-0.18,-0.44,0.04
0.543,0.57,-0.23,-0.15,-0.18,-0.44,0.04
0.543,0.55,-0.25,-0.07,-0.18,-0.44,0.04
0.545,0.55,-0.25,-0.07,-0.18,-0.44,0.04
0.547,0.55,-0.25,-0.07,-0.17,-0.44,0.04
0.548,0.50,-0.25,0.01,-0.17,-0.44,0.04
0.549,0.50,-0.25,0.01,-0.17,-0.44,0.04
0.551,0.50,-0.25,0.01,-0.16,-0.44,0.04
0.551,0.52,-0.23,0.12,-0.16,-0.44,0.04
0.553,0.52,-0.23,0.12,-0.16,-0.43,0.04
0.555,0.52,-0.23,0.12,-0.15,-0.43,0.04
0.555,0.55,-0.20,0.19,-0.15,-0.43,0.04
0.557,0.55,-0.20,0.19,-0.15,-0.42,0.03
0.564,0.55,-0.20,0.19,-0.14,-0.41,0.03
0.565,0.63,-0.21,0.17,-0.14,-0.41,0.03
0.565,0.63,-0.21,0.17,-0.14,-0.40,0.03
0.565,0.66,-0.26,0.09,-0.14,-0.40,0.03
0.566,0.66,-0.26,0.09,-0.14,-0.39,0.02
0.566,0.66,-0.26,0.09,-0.14,-0.39,0.02
0.567,0.66,-0.26,0.09,-0.13,-0.39,0.02
0.567,0.66,-0.31,-0.03,-0.13,-0.39,0.02
0.569,0.66,-0.31,-0.03,-0.14,-0.39,0.02
0.571,0.66,-0.31,-0.03,-0.14,-0.39,0.02
0.571,0.59,-0.37,-0.17,-0.14,-0.39,0.02
0.573,0.59,-0.37,-0.17,-0.14,-0.40,0.02
0.584,0.59,-0.37,-0.17,-0.14,-0.41,0.02
0.585,0.52,-0.41,-0.27,-0.14,-0.41,0.02
0.585,0.52,-0.41,-0.27,-0.14,-0.42,0.02
0.586,0.52,-0.41,-0.27,-0.13,-0.43,0.03
0.586,0.45,-0.45,-0.37,-0.13,-0.43,0.03
0.586,0.45,-0.45,-0.37,-0.13,-0.45,0.03
0.587,0.45,-0.45,-0.37,-0.14,-0.47,0.03
0.587,0.38,-0.47,-0.47,-0.14,-0.47,0.03
0.587,0.38,-0.47,-0.47,-0.13,-0.49,0.04
0.588,0.38,-0.47,-0.47,-0.13,-0.52,0.05
0.588,0.33,-0.47,-0.61,-0.13,-0.52,0.05
0.588,0.33,-0.47,-0.61,-0.13,-0.55,0.05
0.591,0.33,-0.47,-0.61,-0.12,-0.59,0.06
0.591,0.31,-0.45,-0.75,-0.12,-0.59,0.06
0.592,0.31,-0.45,-0.75,-0.12,-0.63,0.07
0.595,0.31,-0.45,-0.75,-0.11,-0.68,0.07
0.595,0.32,-0.46,-0.90,-0.11,-0.68,0.07
0.597,0.32,-0.46,-0.90,-0.10,-0.73,0.08
0.599,0.32,-0.46,-0.90,-0.09,-0.78,0.09
0.599,0.35,-0.48,-1.00,-0.09,-0.78,0.09
0.6,0.35,-0.48,-1.00,-0.08,-0.83,0.09
0.603,0.35,-0.48,-1.00,-0.07,-0.89,0.10
0.603,0.36,-0.55,-1.08,-0.07,-0.89,0.10
0.604,0.36,-0.55,-1.08,-0.06,-0.95,0.10
0.608,0.36,-0.55,-1.08,-0.05,-1.01,0.11
0.608,0.33,-0.61,-1.14,-0.05,-1.01,0.11
0.608,0.33,-0.61,-1.14,-0.03,-1.07,0.11
0.611,0.33,-0.61,-1.14,-0.02,-1.13,0.12
0.611,0.30,-0.67,-1.18,-0.02,-1.13,0.12
0.613,0.30,-0.67,-1.18,-0.01,-1.19,0.13
0.615,0.30,-0.67,-1.18,0.00,-1.26,0.13
0.615,0.24,-0.72,-1.24,0.00,-1.26,0.13
0.616,0.24,-0.72,-1.24,0.01,-1.32,0.14
0.619,0.24,-0.72,-1.24,0.02,-1.39,0.15
0.619,0.22,-0.77,-1.31,0.02,-1.39,0.15
0.62,0.22,-0.77,-1.31,0.03,-1.48,0.15
0.623,0.22,-0.77,-1.31,0.02,-1.59,0.15
0.623,0.38,-0.85,-1.42,0.02,-1.59,0.15
0.625,0.38,-0.85,-1.42,0.01,-1.71,0.15
0.626,0.38,-0.85,-1.42,0.01,-1.84,0.15
0.627,1.69,-1.69,-2.15,0.01,-1.84,0.15
0.628,1.69,-1.69,-2.15,0.01,-1.98,0.15
0.631,1.69,-1.69,-2.15,0.01,-2.09,0.16
0.631,1.28,-1.80,-1.86,0.01,-2.09,0.16
0.632,1.28,-1.80,-1.86,0.02,-2.16,0.17
0.634,1.28,-1.80,-1.86,0.04,-2.17,0.19
0.635,0.11,-1.64,-1.20,0.04,-2.17,0.19
0.636,0.11,-1.64,-1.20,0.05,-2.13,0.21
0.639,0.11,-1.64,-1.20,0.06,-2.07,0.24
0.639,-0.75,-1.17,-1.00,0.06,-2.07,0.24
0.641,-0.75,-1.17,-1.00,0.07,-1.99,0.28
0.643,-0.75,-1.17,-1.00,0.08,-1.92,0.33
0.643,-1.14,-0.48,-0.91,0.08,-1.92,0.33
0.644,-1.14,-0.48,-0.91,0.08,-1.87,0.38
0.647,-1.14,-0.48,-0.91,0.09,-1.83,0.42
0.647,-1.34,0.07,-0.65,0.09,-1.83,0.42
0.648,-1.34,0.07,-0.65,0.08,-1.79,0.47
0.651,-1.34,0.07,-0.65,0.08,-1.76,0.52
0.651,-1.56,0.19,-0.37,0.08,-1.76,0.52
0.652,-1.56,0.19,-0.37,0.08,-1.72,0.57
0.655,-1.56,0.19,-0.37,0.07,-1.69,0.61
0.655,-1.56,0.03,-0.24,0.07,-1.69,0.61
0.658,-1.56,0.03,-0.24,0.06,-1.66,0.63
0.659,-1.56,0.03,-0.24,0.05,-1.62,0.66
0.66,-1.16,-0.25,-0.34,0.05,-1.62,0.66
0.66,-1.16,-0.25,-0.34,0.04,-1.59,0.67
0.663,-1.16,-0.25,-0.34,0.04,-1.56,0.69
0.663,-0.38,-0.52,-0.42,0.04,-1.56,0.69
0.664,-0.38,-0.52,-0.42,0.03,-1.53,0.69
0.666,-0.38,-0.52,-0.42,0.02,-1.50,0.68
0.667,0.47,-0.72,-0.41,0.02,-1.50,0.68
0.668,0.47,-0.72,-0.41,0.01,-1.47,0.67
0.67,0.47,-0.72,-0.41,0.01,-1.45,0.66
0.671,1.08,-0.82,-0.36,0.01,-1.45,0.66
0.672,1.08,-0.82,-0.36,0.00,-1.43,0.65
0.681,1.08,-0.82,-0.36,-0.00,-1.41,0.63
0.682,1.40,-0.83,-0.34,-0.00,-1.41,0.63
0.682,1.40,-0.83,-0.34,-0.01,-1.40,0.62
0.682,1.40,-0.83,-0.34,-0.01,-1.39,0.60
0.683,1.51,-0.72,-0.37,-0.01,-1.39,0.60
0.683,1.51,-0.72,-0.37,-0.01,-1.37,0.58
0.683,1.51,-0.72,-0.37,-0.02,-1.36,0.56
0.684,1.54,-0.55,-0.37,-0.02,-1.36,0.56
0.684,1.54,-0.55,-0.37,-0.02,-1.34,0.55
0.687,1.54,-0.55,-0.37,-0.02,-1.32,0.53
0.687,1.54,-0.35,-0.37,-0.02,-1.32,0.53
0.688,1.54,-0.35,-0.37,-0.02,-1.30,0.52
0.702,1.54,-0.35,-0.37,-0.03,-1.28,0.50
0.702,1.47,-0.18,-0.35,-0.03,-1.28,0.50
0.703,1.47,-0.18,-0.35,-0.03,-1.26,0.48
0.703,1.47,-0.18,-0.35,-0.03,-1.24,0.47
0.703,1.37,-0.06,-0.34,-0.03,-1.24,0.47
0.704,1.37,-0.06,-0.34,-0.04,-1.21,0.45
0.704,1.37,-0.06,-0.34,-0.05,-1.19,0.43
0.704,1.32,-0.00,-0.35,-0.05,-1.19,0.43
0.705,1.32,-0.00,-0.35,-0.06,-1.16,0.42
0.705,1.32,-0.00,-0.35,-0.07,-1.14,0.40
0.705,1.27,0.01,-0.42,-0.07,-1.14,0.40
0.706,1.27,0.01,-0.42,-0.08,-1.12,0.39
0.706,1.27,0.01,-0.42,-0.09,-1.10,0.37
0.707,1.21,-0.00,-0.50,-0.09,-1.10,0.37
0.708,1.21,-0.00,-0.50,-0.11,-1.08,0.36
0.71,1.21,-0.00,-0.50,-0.13,-1.06,0.35
0.711,1.11,0.00,-0.58,-0.13,-1.06,0.35
0.712,1.11,0.00,-0.58,-0.15,-1.04,0.34
0.715,1.11,0.00,-0.58,-0.17,-1.02,0.34
0.715,0.97,0.00,-0.66,-0.17,-1.02,0.34
0.716,0.97,0.00,-0.66,-0.19,-1.00,0.34
0.719,0.97,0.00,-0.66,-0.21,-0.99,0.33
0.719,0.83,0.01,-0.74,-0.21,-0.99,0.33
0.72,0.83,0.01,-0.74,-0.23,-0.97,0.33
0.722,0.83,0.01,-0.74,-0.25,-0.96,0.33
0.723,0.68,0.01,-0.82,-0.25,-0.96,0.33
0.725,0.68,0.01,-0.82,-0.27,-0.96,0.33
0.727,0.68,0.01,-0.82,-0.29,-0.95,0.33
0.727,0.55,-0.00,-0.87,-0.29,-0.95,0.33
0.729,0.55,-0.00,-0.87,-0.31,-0.95,0.33
0.731,0.55,-0.00,-0.87,-0.33,-0.95,0.34
0.731,0.46,-0.02,-0.94,-0.33,-0.95,0.34
0.732,0.46,-0.02,-0.94,-0.34,-0.96,0.34
0.734,0.46,-0.02,-0.94,-0.36,-0.96,0.34
0.735,0.40,-0.09,-0.96,-0.36,-0.96,0.34
0.736,0.40,-0.09,-0.96,-0.37,-0.97,0.34
0.738,0.40,-0.09,-0.96,-0.38,-0.98,0.34
0.739,0.36,-0.15,-0.91,-0.38,-0.98,0.34
0.74,0.36,-0.15,-0.91,-0.39,-0.99,0.35
0.742,0.36,-0.15,-0.91,-0.39,-1.00,0.35
0.743,0.35,-0.19,-0.84,-0.39,-1.00,0.35
0.744,0.35,-0.19,-0.84,-0.40,-1.00,0.35
0.746,0.35,-0.19,-0.84,-0.40,-1.01,0.35
0.747,0.35,-0.23,-0.73,-0.40,-1.01,0.35
0.748,0.35,-0.23,-0.73,-0.40,-1.02,0.35
0.75,0.35,-0.23,-0.73,-0.40,-1.03,0.35
0.75,0.37,-0.26,-0.58,-0.40,-1.03,0.35
0.752,0.37,-0.26,-0.58,-0.40,-1.04,0.35
0.754,0.37,-0.26,-0.58,-0.39,-1.05,0.35
0.755,0.37,-0.29,-0.43,-0.39,-1.05,0.35
0.756,0.37,-0.29,-0.43,-0.39,-1.05,0.35
0.764,0.37,-0.29,-0.43,-0.38,-1.06,0.35
0.765,0.41,-0.29,-0.28,-0.38,-1.06,0.35
0.765,0.41,-0.29,-0.28,-0.38,-1.06,0.35
0.766,0.41,-0.29,-0.28,-0.37,-1.06,0.34
0.766,0.43,-0.25,-0.14,-0.37,-1.06,0.34
0.766,0.43,-0.25,-0.14,-0.37,-1.06,0.34
0.766,0.43,-0.25,-0.14,-0.36,-1.06,0.33
0.767,0.48,-0.19,-0.05,-0.36,-1.06,0.33
0.768,0.48,-0.19,-0.05,-0.36,-1.06,0.32
0.771,0.48,-0.19,-0.05,-0.36,-1.05,0.32
0.771,0.52,-0.11,-0.02,-0.36,-1.05,0.32
0.772,0.52,-0.11,-0.02,-0.36,-1.04,0.31
0.785,0.52,-0.11,-0.02,-0.37,-1.04,0.30
0.786,0.55,-0.04,-0.04,-0.37,-1.04,0.30
0.786,0.55,-0.04,-0.04,-0.37,-1.03,0.29
0.787,0.55,-0.04,-0.04,-0.38,-1.03,0.28
0.787,0.55,-0.00,-0.10,-0.38,-1.03,0.28
0.787,0.55,-0.00,-0.10,-0.38,-1.03,0.27
0.787,0.55,-0.00,-0.10,-0.39,-1.03,0.26
0.788,0.57,0.06,-0.15,-0.39,-1.03,0.26
0.788,0.57,0.06,-0.15,-0.40,-1.04,0.25
0.788,0.57,0.06,-0.15,-0.41,-1.04,0.23
0.788,0.61,0.12,-0.19,-0.41,-1.04,0.23
0.788,0.61,0.12,-0.19,-0.42,-1.03,0.22
0.791,0.61,0.12,-0.19,-0.43,-1.03,0.20
0.791,0.63,0.17,-0.23,-0.43,-1.03,0.20
0.792,0.63,0.17,-0.23,-0.43,-1.03,0.19
0.794,0.63,0.17,-0.23,-0.44,-1.02,0.18
0.794,0.64,0.21,-0.28,-0.44,-1.02,0.18
0.796,0.64,0.21,-0.28,-0.45,-1.01,0.17
0.798,0.64,0.21,-0.28,-0.47,-1.01,0.15
0.799,0.62,0.23,-0.32,-0.47,-1.01,0.15
0.8,0.62,0.23,-0.32,-0.48,-1.00,0.14
0.802,0.62,0.23,-0.32,-0.49,-0.99,0.13
0.802,0.58,0.20,-0.33,-0.49,-0.99,0.13
0.804,0.58,0.20,-0.33,-0.50,-0.99,0.12
0.806,0.58,0.20,-0.33,-0.51,-0.98,0.11
0.806,0.53,0.13,-0.35,-0.51,-0.98,0.11
0.808,0.53,0.13,-0.35,-0.52,-0.97,0.10
0.81,0.53,0.13,-0.35,-0.52,-0.97,0.09
0.81,0.45,0.05,-0.33,-0.52,-0.97,0.09
0.812,0.45,0.05,-0.33,-0.53,-0.97,0.09
0.814,0.45,0.05,-0.33,-0.54,-0.98,0.08
0.815,0.34,-0.05,-0.29,-0.54,-0.98,0.08
0.816,0.34,-0.05,-0.29,-0.55,-0.98,0.08
0.818,0.34,-0.05,-0.29,-0.55,-0.99,0.08
0.818,0.25,-0.12,-0.20,-0.55,-0.99,0.08
0.82,0.25,-0.12,-0.20,-0.55,-1.00,0.07
0.822,0.25,-0.12,-0.20,-0.55,-1.00,0.07
0.822,0.16,-0.17,-0.09,-0.55,-1.00,0.07
0.824,0.16,-0.17,-0.09,-0.55,-1.01,0.07
0.826,0.16,-0.17,-0.09,-0.55,-1.02,0.08
0.826,0.06,-0.22,0.02,-0.55,-1.02,0.08
0.828,0.06,-0.22,0.02,-0.55,-1.02,0.08
0.83,0.06,-0.22,0.02,-0.54,-1.03,0.09
0.831,-0.09,-0.27,0.13,-0.54,-1.03,0.09
0.832,-0.09,-0.27,0.13,-0.53,-1.03,0.10
0.834,-0.09,-0.27,0.13,-0.52,-1.04,0.10
0.834,-0.24,-0.31,0.23,-0.52,-1.04,0.10
0.836,-0.24,-0.31,0.23,-0.51,-1.06,0.12
0.838,-0.24,-0.31,0.23,-0.50,-1.07,0.13
0.838,-0.37,-0.37,0.32,-0.50,-1.07,0.13
0.84,-0.37,-0.37,0.32,-0.49,-1.08,0.14
0.842,-0.37,-0.37,0.32,-0.48,-1.09,0.16
0.842,-0.51,-0.46,0.41,-0.48,-1.09,0.16
0.843,-0.51,-0.46,0.41,-0.46,-1.10,0.18
0.846,-0.51,-0.46,0.41,-0.44,-1.11,0.20
0.847,-0.59,-0.57,0.51,-0.44,-1.11,0.20
0.848,-0.59,-0.57,0.51,-0.42,-1.12,0.21
0.85,-0.59,-0.57,0.51,-0.40,-1.13,0.23
0.85,-0.68,-0.66,0.57,-0.40,-1.13,0.23
0.852,-0.68,-0.66,0.57,-0.38,-1.13,0.26
0.854,-0.68,-0.66,0.57,-0.36,-1.14,0.27
0.854,-0.71,-0.73,0.63,-0.36,-1.14,0.27
0.856,-0.71,-0.73,0.63,-0.34,-1.14,0.30
0.864,-0.71,-0.73,0.63,-0.32,-1.14,0.31
0.865,-0.74,-0.80,0.66,-0.32,-1.14,0.31
0.865,-0.74,-0.80,0.66,-0.30,-1.14,0.34
0.866,-0.74,-0.80,0.66,-0.28,-1.14,0.35
0.866,-0.71,-0.83,0.63,-0.28,-1.14,0.35
0.866,-0.71,-0.83,0.63,-0.27,-1.15,0.37
0.866,-0.71,-0.83,0.63,-0.25,-1.15,0.39
0.867,-0.69,-0.85,0.53,-0.25,-1.15,0.39
0.868,-0.69,-0.85,0.53,-0.24,-1.16,0.41
0.87,-0.69,-0.85,0.53,-0.22,-1.17,0.43
0.87,-0.70,-0.85,0.39,-0.22,-1.17,0.43
0.872,-0.70,-0.85,0.39,-0.20,-1.18,0.45
0.885,-0.70,-0.85,0.39,-0.19,-1.19,0.46
0.885,-0.71,-0.84,0.25,-0.19,-1.19,0.46
0.886,-0.71,-0.84,0.25,-0.17,-1.21,0.48
0.886,-0.71,-0.84,0.25,-0.15,-1.24,0.49
0.886,-0.73,-0.83,0.09,-0.15,-1.24,0.49
0.886,-0.73,-0.83,0.09,-0.14,-1.25,0.52
0.886,-0.73,-0.83,0.09,-0.12,-1.28,0.53
0.887,-0.71,-0.84,-0.11,-0.12,-1.28,0.53
0.887,-0.71,-0.84,-0.11,-0.10,-1.31,0.55
0.887,-0.71,-0.84,-0.11,-0.09,-1.34,0.56
0.887,-0.64,-0.84,-0.32,-0.09,-1.34,0.56
0.887,-0.64,-0.84,-0.32,-0.08,-1.36,0.58
0.89,-0.64,-0.84,-0.32,-0.06,-1.39,0.59
0.89,-0.47,-0.87,-0.53,-0.06,-1.39,0.59
0.892,-0.47,-0.87,-0.53,-0.06,-1.42,0.60
0.894,-0.47,-0.87,-0.53,-0.05,-1.45,0.61
0.894,-0.29,-0.89,-0.74,-0.05,-1.45,0.61
0.895,-0.29,-0.89,-0.74,-0.04,-1.48,0.62
0.898,-0.29,-0.89,-0.74,-0.03,-1.51,0.63
0.898,-0.11,-0.93,-0.95,-0.03,-1.51,0.63
0.9,-0.11,-0.93,-0.95,-0.02,-1.53,0.63
0.902,-0.11,-0.93,-0.95,-0.02,-1.55,0.63
0.902,0.12,-0.95,-1.15,-0.02,-1.55,0.63
0.903,0.12,-0.95,-1.15,-0.02,-1.57,0.63
0.906,0.12,-0.95,-1.15,-0.02,-1.59,0.63
0.906,0.41,-0.96,-1.33,-0.02,-1.59,0.63
0.908,0.41,-0.96,-1.33,-0.03,-1.60,0.62
0.91,0.41,-0.96,-1.33,-0.03,-1.62,0.62
0.91,0.69,-0.97,-1.51,-0.03,-1.62,0.62
0.911,0.69,-0.97,-1.51,-0.04,-1.62,0.62
0.914,0.69,-0.97,-1.51,-0.06,-1.63,0.61
0.914,0.85,-0.97,-1.63,-0.06,-1.63,0.61
0.915,0.85,-0.97,-1.63,-0.07,-1.64,0.61
0.918,0.85,-0.97,-1.63,-0.09,-1.64,0.60
0.918,0.93,-0.94,-1.76,-0.09,-1.64,0.60
0.919,0.93,-0.94,-1.76,-0.11,-1.65,0.60
0.922,0.93,-0.94,-1.76,-0.13,-1.65,0.60
0.924,0.92,-0.94,-1.92,-0.13,-1.65,0.60
0.925,0.92,-0.94,-1.92,-0.15,-1.66,0.60
0.926,0.92,-0.94,-1.92,-0.18,-1.67,0.60
0.926,0.91,-0.97,-2.07,-0.18,-1.67,0.60
0.928,0.91,-0.97,-2.07,-0.21,-1.68,0.61
0.93,0.91,-0.97,-2.07,-0.24,-1.68,0.61
0.93,0.87,-1.06,-2.21,-0.24,-1.68,0.61
0.931,0.87,-1.06,-2.21,-0.26,-1.69,0.62
0.934,0.87,-1.06,-2.21,-0.29,-1.69,0.63
0.934,0.82,-1.21,-2.25,-0.29,-1.69,0.63
0.935,0.82,-1.21,-2.25,-0.32,-1.70,0.65
0.938,0.82,-1.21,-2.25,-0.34,-1.69,0.66
0.938,0.80,-1.42,-2.26,-0.34,-1.69,0.66
0.939,0.80,-1.42,-2.26,-0.37,-1.70,0.68
0.942,0.80,-1.42,-2.26,-0.39,-1.70,0.70
0.942,0.76,-1.66,-2.24,-0.39,-1.70,0.70
0.943,0.76,-1.66,-2.24,-0.41,-1.70,0.72
0.946,0.76,-1.66,-2.24,-0.42,-1.70,0.74
0.946,0.75,-1.91,-2.20,-0.42,-1.70,0.74
0.947,0.75,-1.91,-2.20,-0.43,-1.70,0.77
0.95,0.75,-1.91,-2.20,-0.44,-1.71,0.80
0.95,0.81,-2.13,-2.14,-0.44,-1.71,0.80
0.951,0.81,-2.13,-2.14,-0.45,-1.71,0.82
0.953,0.81,-2.13,-2.14,-0.45,-1.71,0.85
0.954,0.86,-2.32,-2.07,-0.45,-1.71,0.85
0.955,0.86,-2.32,-2.07,-0.44,-1.72,0.88
0.965,0.86,-2.32,-2.07,-0.43,-1.73,0.90
0.966,0.89,-2.47,-1.98,-0.43,-1.73,0.90
0.966,0.89,-2.47,-1.98,-0.43,-1.73,0.93
0.966,0.89,-2.47,-1.98,-0.41,-1.75,0.96
0.966,0.92,-2.59,-1.89,-0.41,-1.75,0.96
0.967,0.92,-2.59,-1.89,-0.39,-1.77,0.99
0.967,0.92,-2.59,-1.89,-0.37,-1.79,1.01
0.967,0.92,-2.70,-1.83,-0.37,-1.79,1.01
0.967,0.92,-2.70,-1.83,-0.35,-1.82,1.04
0.971,0.92,-2.70,-1.83,-0.32,-1.85,1.07
0.971,0.82,-2.79,-1.84,-0.32,-1.85,1.07
0.971,0.82,-2.79,-1.84,-0.30,-1.89,1.10
0.98,0.82,-2.79,-1.84,-0.27,-1.93,1.13
0.981,0.69,-2.87,-1.88,-0.27,-1.93,1.13
0.981,0.69,-2.87,-1.88,-0.24,-1.98,1.15
0.981,0.69,-2.87,-1.88,-0.20,-2.03,1.19
0.981,0.51,-2.96,-2.01,-0.20,-2.03,1.19
0.981,0.51,-2.96,-2.01,-0.17,-2.10,1.22
0.982,0.51,-2.96,-2.01,-0.13,-2.18,1.25
0.982,0.31,-3.09,-2.14,-0.13,-2.18,1.25
0.983,0.31,-3.09,-2.14,-0.09,-2.26,1.28
0.985,0.31,-3.09,-2.14,-0.05,-2.36,1.31
0.985,0.11,-3.23,-2.29,-0.05,-2.36,1.31
0.987,0.11,-3.23,-2.29,0.00,-2.46,1.35
0.989,0.11,-3.23,-2.29,0.05,-2.58,1.39
0.99,-0.09,-3.38,-2.42,0.05,-2.58,1.39
0.991,-0.09,-3.38,-2.42,0.11,-2.70,1.42
0.993,-0.09,-3.38,-2.42,0.16,-2.83,1.46
0.993,-0.26,-3.56,-2.49,0.16,-2.83,1.46
0.995,-0.26,-3.56,-2.49,0.22,-2.96,1.50
0.998,-0.26,-3.56,-2.49,0.28,-3.10,1.53
0.998,-0.38,-3.72,-2.46,0.28,-3.10,1.53
0.999,-0.38,-3.72,-2.46,0.34,-3.22,1.57
1.001,-0.38,-3.72,-2.46,0.40,-3.35,1.60
1.002,-0.39,-3.85,-2.33,0.40,-3.35,1.60
1.003,-0.39,-3.85,-2.33,0.47,-3.47,1.64
1.005,-0.39,-3.85,-2.33,0.53,-3.57,1.67
1.006,-0.37,-3.96,-2.17,0.53,-3.57,1.67
1.008,-0.37,-3.96,-2.17,0.58,-3.67,1.71
1.009,-0.37,-3.96,-2.17,0.64,-3.76,1.75
1.01,-0.39,-4.01,-2.02,0.64,-3.76,1.75
1.011,-0.39,-4.01,-2.02,0.69,-3.84,1.78
1.014,-0.39,-4.01,-2.02,0.74,-3.91,1.81
1.014,-0.36,-4.06,-1.90,0.74,-3.91,1.81
1.015,-0.36,-4.06,-1.90,0.79,-3.98,1.85
1.018,-0.36,-4.06,-1.90,0.82,-4.03,1.88
1.018,-0.26,-4.14,-1.81,0.82,-4.03,1.88
1.019,-0.26,-4.14,-1.81,0.86,-4.09,1.92
1.021,-0.26,-4.14,-1.81,0.90,-4.15,1.95
1.022,-0.17,-4.23,-1.78,0.90,-4.15,1.95
1.023,-0.17,-4.23,-1.78,0.93,-4.20,1.99
1.025,-0.17,-4.23,-1.78,0.96,-4.26,2.02
1.026,-0.16,-4.36,-1.75,0.96,-4.26,2.02
1.027,-0.16,-4.36,-1.75,0.99,-4.34,2.06
1.03,-0.16,-4.36,-1.75,1.01,-4.42,2.10
1.03,-0.18,-4.41,-1.72,1.01,-4.42,2.10
1.031,-0.18,-4.41,-1.72,1.04,-4.54,2.16
1.033,-0.18,-4.41,-1.72,1.07,-4.67,2.22
1.034,-0.34,-4.27,-1.61,1.07,-4.67,2.22
1.035,-0.34,-4.27,-1.61,1.10,-4.77,2.27
1.037,-0.34,-4.27,-1.61,1.13,-4.85,2.32
1.038,-0.78,-3.89,-1.26,1.13,-4.85,2.32
1.039,-0.78,-3.89,-1.26,1.17,-4.91,2.37
1.041,-0.78,-3.89,-1.26,1.21,-4.97,2.41
1.042,-0.76,-4.03,-1.19,1.21,-4.97,2.41
1.043,-0.76,-4.03,-1.19,1.26,-5.02,2.47
1.045,-0.76,-4.03,-1.19,1.31,-5.11,2.55
1.046,-0.77,-4.05,-1.09,1.31,-5.11,2.55
1.047,-0.77,-4.05,-1.09,1.38,-5.19,2.64
1.049,-0.77,-4.05,-1.09,1.44,-5.28,2.71
1.05,-1.24,-3.02,-0.67,1.44,-5.28,2.71
1.051,-1.24,-3.02,-0.67,1.51,-5.37,2.76
1.053,-1.24,-3.02,-0.67,1.58,-5.43,2.81
1.053,-1.36,-3.48,-0.53,1.58,-5.43,2.81
1.056,-1.36,-3.48,-0.53,1.65,-5.48,2.84
1.058,-1.36,-3.48,-0.53,1.72,-5.52,2.85
1.058,-1.44,-4.73,-0.48,1.72,-5.52,2.85
1.059,-1.44,-4.73,-0.48,1.79,-5.57,2.86
1.061,-1.44,-4.73,-0.48,1.86,-5.61,2.86
1.061,-0.90,-5.66,-0.35,1.86,-5.61,2.86
1.063,-0.90,-5.66,-0.35,1.93,-5.65,2.86
1.065,-0.90,-5.66,-0.35,1.99,-5.70,2.86
1.066,-0.33,-6.23,-0.56,1.99,-5.70,2.86
1.067,-0.33,-6.23,-0.56,2.06,-5.74,2.86
1.069,-0.33,-6.23,-0.56,2.12,-5.77,2.88
1.069,-0.30,-6.40,-0.87,2.12,-5.77,2.88
1.071,-0.30,-6.40,-0.87,2.18,-5.80,2.89
1.073,-0.30,-6.40,-0.87,2.25,-5.82,2.93
1.073,-0.83,-6.27,-1.11,2.25,-5.82,2.93
1.081,-0.83,-6.27,-1.11,2.31,-5.83,2.97
1.082,-0.83,-6.27,-1.11,2.37,-5.84,3.02
1.082,-1.62,-5.96,-1.19,2.37,-5.84,3.02
1.082,-1.62,-5.96,-1.19,2.44,-5.85,3.08
1.083,-1.62,-5.96,-1.19,2.50,-5.86,3.15
1.083,-2.40,-5.59,-1.15,2.50,-5.86,3.15
1.083,-2.40,-5.59,-1.15,2.56,-5.89,3.24
1.085,-2.40,-5.59,-1.15,2.61,-5.96,3.44
1.086,-3.00,-5.24,-1.05,2.61,-5.96,3.44
1.087,-3.00,-5.24,-1.05,2.66,-6.03,3.66
1.089,-3.00,-5.24,-1.05,2.70,-6.07,3.84
1.09,-5.29,-3.82,-0.96,2.70,-6.07,3.84
1.101,-5.29,-3.82,-0.96,2.75,-6.09,3.99
1.102,-5.29,-3.82,-0.96,2.79,-6.10,4.12
1.102,-5.11,-3.54,-0.54,2.79,-6.10,4.12
1.103,-5.11,-3.54,-0.54,2.84,-6.10,4.23
1.103,-5.11,-3.54,-0.54,2.89,-6.10,4.31
1.103,-3.96,-4.18,-0.20,2.89,-6.10,4.31
1.103,-3.96,-4.18,-0.20,2.93,-6.10,4.38
1.104,-3.96,-4.18,-0.20,2.98,-6.12,4.42
1.104,-3.15,-4.90,-0.16,2.98,-6.12,4.42
1.105,-3.15,-4.90,-0.16,3.02,-6.15,4.44
1.105,-3.15,-4.90,-0.16,3.08,-6.22,4.45
1.105,-2.24,-5.59,-0.32,3.08,-6.22,4.45
1.109,-2.24,-5.59,-0.32,3.13,-6.27,4.43
1.11,-2.24,-5.59,-0.32,3.18,-6.29,4.40
1.11,-1.17,-6.02,-0.31,3.18,-6.29,4.40
1.111,-1.17,-6.02,-0.31,3.22,-6.29,4.34
1.113,-1.17,-6.02,-0.31,3.24,-6.25,4.26
1.114,0.05,-6.02,-0.07,3.24,-6.25,4.26
1.115,0.05,-6.02,-0.07,3.23,-6.17,4.17
1.118,0.05,-6.02,-0.07,3.20,-6.05,4.07
1.118,1.15,-5.49,-0.13,3.20,-6.05,4.07
1.119,1.15,-5.49,-0.13,3.14,-5.89,3.98
1.121,1.15,-5.49,-0.13,3.06,-5.72,3.89
1.122,1.75,-4.67,-0.33,3.06,-5.72,3.89
1.123,1.75,-4.67,-0.33,2.97,-5.54,3.81
1.125,1.75,-4.67,-0.33,2.88,-5.38,3.75
1.126,1.83,-3.84,-0.68,2.88,-5.38,3.75
1.127,1.83,-3.84,-0.68,2.80,-5.22,3.70
1.129,1.83,-3.84,-0.68,2.72,-5.06,3.67
1.13,1.58,-3.30,-0.78,2.72,-5.06,3.67
1.131,1.58,-3.30,-0.78,2.64,-4.90,3.65
1.133,1.58,-3.30,-0.78,2.58,-4.74,3.65
1.134,1.21,-2.95,-0.59,2.58,-4.74,3.65
1.135,1.21,-2.95,-0.59,2.51,-4.58,3.66
1.137,1.21,-2.95,-0.59,2.44,-4.42,3.68
1.138,0.88,-2.71,-0.35,2.44,-4.42,3.68
1.139,0.88,-2.71,-0.35,2.38,-4.26,3.70
1.141,0.88,-2.71,-0.35,2.32,-4.10,3.74
1.142,0.66,-2.51,-0.10,2.32,-4.10,3.74
1.144,0.66,-2.51,-0.10,2.26,-3.94,3.76
1.145,0.66,-2.51,-0.10,2.21,-3.79,3.80
1.145,0.64,-2.32,0.17,2.21,-3.79,3.80
1.147,0.64,-2.32,0.17,2.15,-3.64,3.82
1.149,0.64,-2.32,0.17,2.10,-3.48,3.85
1.149,0.80,-2.12,0.51,2.10,-3.48,3.85
1.151,0.80,-2.12,0.51,2.04,-3.34,3.87
1.153,0.80,-2.12,0.51,1.99,-3.19,3.89
1.153,1.16,-1.87,0.82,1.99,-3.19,3.89
1.155,1.16,-1.87,0.82,1.93,-3.04,3.91
1.158,1.16,-1.87,0.82,1.87,-2.90,3.92
1.158,1.64,-1.60,1.08,1.87,-2.90,3.92
1.159,1.64,-1.60,1.08,1.82,-2.77,3.92
1.161,1.64,-1.60,1.08,1.77,-2.64,3.92
1.161,2.16,-1.31,1.38,1.77,-2.64,3.92
1.163,2.16,-1.31,1.38,1.72,-2.52,3.92
1.165,2.16,-1.31,1.38,1.67,-2.42,3.92
1.166,2.63,-1.00,1.76,1.67,-2.42,3.92
1.167,2.63,-1.00,1.76,1.63,-2.31,3.91
1.169,2.63,-1.00,1.76,1.59,-2.21,3.90
1.169,3.06,-0.62,2.24,1.59,-2.21,3.90
1.17,3.06,-0.62,2.24,1.56,-2.12,3.89
1.173,3.06,-0.62,2.24,1.54,-2.02,3.88
1.173,3.51,-0.11,2.79,1.54,-2.02,3.88
1.175,3.51,-0.11,2.79,1.51,-1.93,3.86
1.177,3.51,-0.11,2.79,1.48,-1.83,3.84
1.177,4.00,0.45,3.30,1.48,-1.83,3.84
1.179,4.00,0.45,3.30,1.46,-1.73,3.82
1.181,4.00,0.45,3.30,1.44,-1.62,3.80
1.182,4.45,1.02,3.65,1.44,-1.62,3.80
1.183,4.45,1.02,3.65,1.41,-1.51,3.77
1.185,4.45,1.02,3.65,1.38,-1.40,3.75
1.185,4.85,1.57,3.78,1.38,-1.40,3.75
1.186,4.85,1.57,3.78,1.36,-1.28,3.72
1.189,4.85,1.57,3.78,1.33,-1.16,3.70
1.19,5.11,2.05,3.73,1.33,-1.16,3.70
1.198,5.11,2.05,3.73,1.29,-1.05,3.67
1.198,5.11,2.05,3.73,1.26,-0.94,3.64
1.199,5.30,2.46,3.57,1.26,-0.94,3.64
1.199,5.30,2.46,3.57,1.23,-0.83,3.61
1.199,5.30,2.46,3.57,1.18,-0.73,3.58
1.2,5.49,2.77,3.29,1.18,-0.73,3.58
1.2,5.49,2.77,3.29,1.14,-0.63,3.55
1.201,5.49,2.77,3.29,1.10,-0.54,3.52
1.201,5.67,2.96,3.00,1.10,-0.54,3.52
1.203,5.67,2.96,3.00,1.06,-0.47,3.48
1.205,5.67,2.96,3.00,1.01,-0.40,3.45
1.205,5.83,3.07,2.69,1.01,-0.40,3.45
1.206,5.83,3.07,2.69,0.97,-0.33,3.41
1.218,5.83,3.07,2.69,0.92,-0.28,3.36
1.219,6.14,3.12,2.53,0.92,-0.28,3.36
1.219,6.14,3.12,2.53,0.88,-0.23,3.31
1.219,6.14,3.12,2.53,0.84,-0.19,3.25
1.22,6.77,3.19,2.58,0.84,-0.19,3.25
1.22,6.77,3.19,2.58,0.80,-0.15,3.20
1.22,6.77,3.19,2.58,0.77,-0.10,3.13
1.221,7.48,3.38,2.84,0.77,-0.10,3.13
1.221,7.48,3.38,2.84,0.75,-0.07,3.07
1.221,7.48,3.38,2.84,0.73,-0.03,3.00
1.222,8.00,3.73,3.15,0.73,-0.03,3.00
1.222,8.00,3.73,3.15,0.71,0.00,2.94
1.23,8.00,3.73,3.15,0.70,0.03,2.88
1.231,8.31,4.22,3.46,0.70,0.03,2.88
1.231,8.31,4.22,3.46,0.70,0.06,2.81
1.232,8.31,4.22,3.46,0.70,0.08,2.75
1.232,8.47,4.72,3.70,0.70,0.08,2.75
1.232,8.47,4.72,3.70,0.71,0.10,2.69
1.233,8.47,4.72,3.70,0.72,0.12,2.62
1.233,8.52,5.13,3.85,0.72,0.12,2.62
1.235,8.52,5.13,3.85,0.74,0.13,2.56
1.237,8.52,5.13,3.85,0.75,0.14,2.51
1.237,8.51,5.47,3.86,0.75,0.14,2.51
1.238,8.51,5.47,3.86,0.77,0.14,2.45
1.242,8.51,5.47,3.86,0.79,0.14,2.40
1.242,8.47,5.69,3.76,0.79,0.14,2.40
1.243,8.47,5.69,3.76,0.82,0.13,2.34
1.245,8.47,5.69,3.76,0.84,0.12,2.30
1.245,8.47,5.87,3.60,0.84,0.12,2.30
1.247,8.47,5.87,3.60,0.86,0.10,2.25
1.249,8.47,5.87,3.60,0.89,0.08,2.21
1.249,8.36,5.97,3.38,0.89,0.08,2.21
1.25,8.36,5.97,3.38,0.91,0.05,2.18
1.253,8.36,5.97,3.38,0.93,0.02,2.16
1.253,8.09,6.06,3.10,0.93,0.02,2.16
1.254,8.09,6.06,3.10,0.95,-0.01,2.13
1.257,8.09,6.06,3.10,0.97,-0.04,2.11
1.257,7.80,6.10,2.82,0.97,-0.04,2.11
1.258,7.80,6.10,2.82,0.99,-0.07,2.09
1.26,7.80,6.10,2.82,1.01,-0.11,2.05
1.261,7.53,6.11,2.54,1.01,-0.11,2.05
1.262,7.53,6.11,2.54,1.03,-0.13,2.01
1.265,7.53,6.11,2.54,1.05,-0.16,1.96
1.265,7.52,6.05,2.27,1.05,-0.16,1.96
1.266,7.52,6.05,2.27,1.08,-0.19,1.90
1.268,7.52,6.05,2.27,1.10,-0.23,1.84
1.269,7.66,5.95,1.98,1.10,-0.23,1.84
1.27,7.66,5.95,1.98,1.12,-0.27,1.78
1.272,7.66,5.95,1.98,1.15,-0.30,1.70
1.273,7.72,5.84,1.66,1.15,-0.30,1.70
1.274,7.72,5.84,1.66,1.17,-0.33,1.61
1.277,7.72,5.84,1.66,1.19,-0.36,1.53
1.277,8.07,5.69,1.42,1.19,-0.36,1.53
1.278,8.07,5.69,1.42,1.21,-0.39,1.44
1.281,8.07,5.69,1.42,1.23,-0.41,1.35
1.281,8.16,5.61,1.19,1.23,-0.41,1.35
1.282,8.16,5.61,1.19,1.25,-0.43,1.27
1.284,8.16,5.61,1.19,1.26,-0.45,1.18
1.285,8.24,5.50,1.05,1.26,-0.45,1.18
1.286,8.24,5.50,1.05,1.28,-0.46,1.09
1.288,8.24,5.50,1.05,1.30,-0.47,1.02
1.289,8.24,5.44,1.04,1.30,-0.47,1.02
1.29,8.24,5.44,1.04,1.31,-0.47,0.94
1.298,8.24,5.44,1.04,1.32,-0.47,0.87
1.299,8.14,5.37,1.10,1.32,-0.47,0.87
1.299,8.14,5.37,1.10,1.33,-0.45,0.81
1.299,8.14,5.37,1.10,1.33,-0.43,0.75
1.3,8.04,5.32,1.14,1.33,-0.43,0.75
1.3,8.04,5.32,1.14,1.33,-0.38,0.69
1.301,8.04,5.32,1.14,1.33,-0.33,0.64
1.301,8.00,5.28,1.10,1.33,-0.33,0.64
1.303,8.00,5.28,1.10,1.32,-0.25,0.59
1.305,8.00,5.28,1.10,1.31,-0.18,0.54
1.305,7.87,5.27,0.88,1.31,-0.18,0.54
1.306,7.87,5.27,0.88,1.28,-0.08,0.49
1.319,7.87,5.27,0.88,1.26,0.01,0.45
1.319,7.70,5.20,0.47,1.26,0.01,0.45
1.32,7.70,5.20,0.47,1.22,0.12,0.40
1.32,7.70,5.20,0.47,1.18,0.22,0.35
1.321,7.52,5.11,-0.04,1.18,0.22,0.35
1.321,7.52,5.11,-0.04,1.14,0.32,0.30
1.321,7.52,5.11,-0.04,1.09,0.42,0.25
1.322,7.35,4.95,-0.70,1.09,0.42,0.25
1.322,7.35,4.95,-0.70,1.03,0.53,0.20
1.322,7.35,4.95,-0.70,0.96,0.62,0.15
1.325,7.13,4.79,-1.36,0.96,0.62,0.15
1.326,7.13,4.79,-1.36,0.90,0.71,0.10
1.326,7.13,4.79,-1.36,0.83,0.80,0.05
1.326,6.85,4.64,-2.03,0.83,0.80,0.05
1.326,6.85,4.64,-2.03,0.75,0.88,0.01
1.329,6.85,4.64,-2.03,0.67,0.95,-0.04
1.329,6.48,4.47,-2.68,0.67,0.95,-0.04
1.33,6.48,4.47,-2.68,0.59,1.01,-0.08
1.333,6.48,4.47,-2.68,0.51,1.06,-0.12
1.333,6.02,4.33,-3.29,0.51,1.06,-0.12
1.334,6.02,4.33,-3.29,0.43,1.09,-0.16
1.337,6.02,4.33,-3.29,0.35,1.12,-0.20
1.337,5.47,4.20,-3.91,0.35,1.12,-0.20
1.338,5.47,4.20,-3.91,0.27,1.13,-0.23
1.341,5.47,4.20,-3.91,0.20,1.14,-0.26
1.342,4.93,4.06,-4.38,0.20,1.14,-0.26
1.342,4.93,4.06,-4.38,0.12,1.13,-0.30
1.345,4.93,4.06,-4.38,0.05,1.12,-0.33
1.345,4.42,3.89,-4.67,0.05,1.12,-0.33
1.346,4.42,3.89,-4.67,-0.01,1.11,-0.36
1.349,4.42,3.89,-4.67,-0.07,1.08,-0.39
1.349,3.97,3.67,-4.78,-0.07,1.08,-0.39
1.35,3.97,3.67,-4.78,-0.13,1.05,-0.41
1.352,3.97,3.67,-4.78,-0.17,1.02,-0.44
1.353,3.55,3.42,-4.67,-0.17,1.02,-0.44
1.354,3.55,3.42,-4.67,-0.21,0.98,-0.46
1.356,3.55,3.42,-4.67,-0.25,0.94,-0.48
1.357,3.15,3.15,-4.38,-0.25,0.94,-0.48
1.358,3.15,3.15,-4.38,-0.28,0.90,-0.50
1.36,3.15,3.15,-4.38,-0.29,0.85,-0.52
1.361,2.79,2.86,-3.94,-0.29,0.85,-0.52
1.362,2.79,2.86,-3.94,-0.30,0.80,-0.53
1.365,2.79,2.86,-3.94,-0.31,0.76,-0.54
1.365,2.50,2.55,-3.43,-0.31,0.76,-0.54
1.366,2.50,2.55,-3.43,-0.30,0.71,-0.55
1.368,2.50,2.55,-3.43,-0.30,0.66,-0.55
1.368,2.18,2.26,-2.87,-0.30,0.66,-0.55
1.37,2.18,2.26,-2.87,-0.28,0.62,-0.54
1.372,2.18,2.26,-2.87,-0.26,0.57,-0.53
1.372,1.76,1.98,-2.33,-0.26,0.57,-0.53
1.375,1.76,1.98,-2.33,-0.23,0.53,-0.52
1.376,1.76,1.98,-2.33,-0.20,0.48,-0.49
1.377,1.32,1.66,-1.81,-0.20,0.48,-0.49
1.378,1.32,1.66,-1.81,-0.16,0.43,-0.46
1.38,1.32,1.66,-1.81,-0.11,0.37,-0.41
1.381,0.78,1.33,-1.39,-0.11,0.37,-0.41
1.382,0.78,1.33,-1.39,-0.06,0.31,-0.35
1.384,0.78,1.33,-1.39,-0.01,0.24,-0.28
1.385,0.01,1.05,-1.08,-0.01,0.24,-0.28
1.386,0.01,1.05,-1.08,0.04,0.15,-0.20
1.388,0.01,1.05,-1.08,0.11,0.06,-0.12
1.389,-0.81,0.78,-0.87,0.11,0.06,-0.12
1.39,-0.81,0.78,-0.87,0.17,-0.04,-0.04
1.392,-0.81,0.78,-0.87,0.25,-0.14,0.05
1.393,-1.37,0.51,-0.67,0.25,-0.14,0.05
1.394,-1.37,0.51,-0.67,0.32,-0.24,0.11
1.397,-1.37,0.51,-0.67,0.40,-0.35,0.18
1.397,-1.50,0.19,-0.51,0.40,-0.35,0.18
1.398,-1.50,0.19,-0.51,0.48,-0.46,0.24
1.4,-1.50,0.19,-0.51,0.57,-0.58,0.28
1.4,-1.41,-0.03,-0.41,0.57,-0.58,0.28
1.402,-1.41,-0.03,-0.41,0.65,-0.70,0.31
1.404,-1.41,-0.03,-0.41,0.74,-0.81,0.31
1.404,-1.10,-0.21,-0.28,0.74,-0.81,0.31
1.406,-1.10,-0.21,-0.28,0.82,-0.93,0.32
1.414,-1.10,-0.21,-0.28,0.91,-1.05,0.31
1.415,-0.61,-0.28,-0.14,0.91,-1.05,0.31
1.415,-0.61,-0.28,-0.14,0.99,-1.17,0.31
1.416,-0.61,-0.28,-0.14,1.07,-1.29,0.30
1.416,-0.41,-0.21,-0.03,1.07,-1.29,0.30
1.416,-0.41,-0.21,-0.03,1.14,-1.39,0.27
1.417,-0.41,-0.21,-0.03,1.21,-1.49,0.24
1.417,-0.29,-0.16,-0.11,1.21,-1.49,0.24
1.418,-0.29,-0.16,-0.11,1.28,-1.57,0.21
1.42,-0.29,-0.16,-0.11,1.34,-1.66,0.18
1.42,-0.09,-0.19,-0.25,1.34,-1.66,0.18
1.422,-0.09,-0.19,-0.25,1.40,-1.73,0.15
1.434,-0.09,-0.19,-0.25,1.44,-1.80,0.12
1.435,-0.12,-0.27,-0.36,1.44,-1.80,0.12
1.435,-0.12,-0.27,-0.36,1.49,-1.84,0.09
1.436,-0.12,-0.27,-0.36,1.53,-1.87,0.06
1.436,-0.14,-0.42,-0.52,1.53,-1.87,0.06
1.436,-0.14,-0.42,-0.52,1.57,-1.89,0.04
1.437,-0.14,-0.42,-0.52,1.59,-1.89,0.02
1.437,-0.06,-0.61,-0.64,1.59,-1.89,0.02
1.437,-0.06,-0.61,-0.64,1.62,-1.88,-0.00
1.437,-0.06,-0.61,-0.64,1.64,-1.86,-0.02
1.438,-0.09,-0.76,-0.78,1.64,-1.86,-0.02
1.438,-0.09,-0.76,-0.78,1.64,-1.82,-0.03
1.44,-0.09,-0.76,-0.78,1.65,-1.78,-0.04
1.44,-0.14,-0.85,-1.02,1.65,-1.78,-0.04
1.442,-0.14,-0.85,-1.02,1.64,-1.72,-0.05
1.444,-0.14,-0.85,-1.02,1.64,-1.66,-0.05
1.445,-0.23,-0.89,-1.23,1.64,-1.66,-0.05
1.446,-0.23,-0.89,-1.23,1.62,-1.60,-0.05
1.448,-0.23,-0.89,-1.23,1.60,-1.53,-0.05
1.449,-0.32,-0.97,-1.51,1.60,-1.53,-0.05
1.45,-0.32,-0.97,-1.51,1.57,-1.45,-0.04
1.452,-0.32,-0.97,-1.51,1.54,-1.38,-0.04
1.453,-0.39,-1.06,-1.82,1.54,-1.38,-0.04
1.456,-0.39,-1.06,-1.82,1.51,-1.30,-0.03
1.456,-0.39,-1.06,-1.82,1.46,-1.22,-0.03
1.456,-0.32,-1.16,-2.10,1.46,-1.22,-0.03
1.458,-0.32,-1.16,-2.10,1.42,-1.14,-0.03
1.46,-0.32,-1.16,-2.10,1.38,-1.06,-0.03
1.46,-0.17,-1.25,-2.27,1.38,-1.06,-0.03
1.462,-0.17,-1.25,-2.27,1.33,-0.96,-0.03
1.464,-0.17,-1.25,-2.27,1.28,-0.87,-0.02
1.465,-0.06,-1.32,-2.33,1.28,-0.87,-0.02
1.466,-0.06,-1.32,-2.33,1.24,-0.78,-0.02
1.468,-0.06,-1.32,-2.33,1.20,-0.69,-0.02
1.468,-0.05,-1.36,-2.30,1.20,-0.69,-0.02
1.469,-0.05,-1.36,-2.30,1.16,-0.59,-0.01
1.472,-0.05,-1.36,-2.30,1.12,-0.50,-0.01
1.472,-0.08,-1.37,-2.24,1.12,-0.50,-0.01
1.473,-0.08,-1.37,-2.24,1.09,-0.41,-0.00
1.476,-0.08,-1.37,-2.24,1.06,-0.32,0.00
1.477,-0.12,-1.37,-2.17,1.06,-0.32,0.00
1.478,-0.12,-1.37,-2.17,1.03,-0.23,0.01
1.48,-0.12,-1.37,-2.17,1.00,-0.14,0.02
1.481,-0.15,-1.37,-2.10,1.00,-0.14,0.02
1.482,-0.15,-1.37,-2.10,0.97,-0.06,0.02
1.484,-0.15,-1.37,-2.10,0.94,0.03,0.03
1.484,-0.15,-1.38,-2.03,0.94,0.03,0.03
1.485,-0.15,-1.38,-2.03,0.92,0.10,0.04
1.488,-0.15,-1.38,-2.03,0.90,0.18,0.05
1.488,-0.23,-1.40,-2.08,0.90,0.18,0.05
1.489,-0.23,-1.40,-2.08,0.87,0.26,0.05
1.492,-0.23,-1.40,-2.08,0.84,0.33,0.06
1.492,-0.32,-1.47,-2.26,0.84,0.33,0.06
1.493,-0.32,-1.47,-2.26,0.82,0.40,0.07
1.496,-0.32,-1.47,-2.26,0.79,0.47,0.08
1.497,-0.35,-1.53,-2.48,0.79,0.47,0.08
1.498,-0.35,-1.53,-2.48,0.75,0.54,0.09
1.5,-0.35,-1.53,-2.48,0.71,0.62,0.10
1.5,-0.29,-1.64,-2.71,0.71,0.62,0.10
1.501,-0.29,-1.64,-2.71,0.67,0.70,0.11
1.504,-0.29,-1.64,-2.71,0.62,0.79,0.12
1.504,-0.32,-1.78,-3.12,0.62,0.79,0.12
1.505,-0.32,-1.78,-3.12,0.57,0.90,0.13
1.514,-0.32,-1.78,-3.12,0.52,1.01,0.15
1.515,-0.41,-1.93,-3.40,0.52,1.01,0.15
1.515,-0.41,-1.93,-3.40,0.46,1.14,0.16
1.516,-0.41,-1.93,-3.40,0.41,1.28,0.18
1.516,-0.47,-2.06,-3.58,0.41,1.28,0.18
1.516,-0.47,-2.06,-3.58,0.36,1.42,0.19
1.517,-0.47,-2.06,-3.58,0.31,1.57,0.21
1.517,-0.46,-2.19,-3.65,0.31,1.57,0.21
1.517,-0.46,-2.19,-3.65,0.25,1.71,0.23
1.52,-0.46,-2.19,-3.65,0.20,1.87,0.25
1.52,-0.38,-2.33,-3.68,0.20,1.87,0.25
1.521,-0.38,-2.33,-3.68,0.14,2.02,0.27
1.535,-0.38,-2.33,-3.68,0.09,2.18,0.29
1.536,-0.37,-2.41,-3.65,0.09,2.18,0.29
1.536,-0.37,-2.41,-3.65,0.04,2.33,0.31
1.536,-0.37,-2.41,-3.65,-0.01,2.48,0.33
1.537,-0.38,-2.40,-3.61,-0.01,2.48,0.33
1.537,-0.38,-2.40,-3.61,-0.05,2.62,0.35
1.537,-0.38,-2.40,-3.61,-0.11,2.76,0.37
1.537,-0.30,-2.35,-3.58,-0.11,2.76,0.37
1.538,-0.30,-2.35,-3.58,-0.16,2.89,0.39
1.538,-0.30,-2.35,-3.58,-0.21,3.01,0.41
1.538,-0.14,-2.19,-3.59,-0.21,3.01,0.41
1.539,-0.14,-2.19,-3.59,-0.26,3.15,0.42
1.54,-0.14,-2.19,-3.59,-0.31,3.26,0.44
1.54,0.09,-1.99,-3.57,-0.31,3.26,0.44
1.542,0.09,-1.99,-3.57,-0.36,3.39,0.45
1.544,0.09,-1.99,-3.57,-0.42,3.51,0.46
1.544,0.38,-1.80,-3.51,-0.42,3.51,0.46
1.546,0.38,-1.80,-3.51,-0.47,3.63,0.46
1.548,0.38,-1.80,-3.51,-0.52,3.75,0.46
1.548,0.67,-1.62,-3.46,-0.52,3.75,0.46
1.549,0.67,-1.62,-3.46,-0.58,3.86,0.46
1.552,0.67,-1.62,-3.46,-0.63,3.99,0.46
1.552,1.04,-1.43,-3.31,-0.63,3.99,0.46
1.553,1.04,-1.43,-3.31,-0.68,4.12,0.44
1.556,1.04,-1.43,-3.31,-0.72,4.27,0.43
1.556,1.46,-1.27,-2.97,-0.72,4.27,0.43
1.558,1.46,-1.27,-2.97,-0.76,4.43,0.42
1.56,1.46,-1.27,-2.97,-0.80,4.60,0.40
1.56,1.94,-1.26,-2.42,-0.80,4.60,0.40
1.561,1.94,-1.26,-2.42,-0.84,4.79,0.38
1.564,1.94,-1.26,-2.42,-0.88,4.99,0.37
1.564,2.25,-1.34,-1.84,-0.88,4.99,0.37
1.565,2.25,-1.34,-1.84,-0.92,5.20,0.36
1.568,2.25,-1.34,-1.84,-0.96,5.41,0.36
1.568,2.31,-1.39,-1.35,-0.96,5.41,0.36
1.569,2.31,-1.39,-1.35,-0.99,5.63,0.37
1.571,2.31,-1.39,-1.35,-1.03,5.85,0.37
1.572,2.14,-1.43,-1.03,-1.03,5.85,0.37
1.573,2.14,-1.43,-1.03,-1.07,6.07,0.37
1.576,2.14,-1.43,-1.03,-1.12,6.27,0.38
1.576,1.92,-1.48,-0.82,-1.12,6.27,0.38
1.577,1.92,-1.48,-0.82,-1.17,6.46,0.38
1.58,1.92,-1.48,-0.82,-1.21,6.64,0.39
1.58,1.78,-1.52,-0.74,-1.21,6.64,0.39
1.581,1.78,-1.52,-0.74,-1.26,6.81,0.39
1.583,1.78,-1.52,-0.74,-1.30,6.95,0.40
1.584,1.57,-1.49,-0.63,-1.30,6.95,0.40
1.585,1.57,-1.49,-0.63,-1.34,7.08,0.42
1.588,1.57,-1.49,-0.63,-1.37,7.20,0.44
1.588,1.19,-1.46,-0.39,-1.37,7.20,0.44
1.589,1.19,-1.46,-0.39,-1.40,7.30,0.46
1.591,1.19,-1.46,-0.39,-1.42,7.38,0.48
1.592,0.72,-1.36,0.00,-1.42,7.38,0.48
1.593,0.72,-1.36,0.00,-1.44,7.45,0.51
1.596,0.72,-1.36,0.00,-1.45,7.51,0.54
1.596,0.26,-1.20,0.45,-1.45,7.51,0.54
1.597,0.26,-1.20,0.45,-1.46,7.56,0.57
1.599,0.26,-1.20,0.45,-1.46,7.59,0.59
1.6,-0.19,-1.07,0.96,-1.46,7.59,0.59
1.601,-0.19,-1.07,0.96,-1.45,7.63,0.62
1.603,-0.19,-1.07,0.96,-1.43,7.66,0.65
1.604,-0.54,-0.90,1.57,-1.43,7.66,0.65
1.605,-0.54,-0.90,1.57,-1.41,7.68,0.67
1.615,-0.54,-0.90,1.57,-1.38,7.71,0.69
1.615,-0.88,-0.69,2.27,-1.38,7.71,0.69
1.616,-0.88,-0.69,2.27,-1.34,7.73,0.71
1.616,-0.88,-0.69,2.27,-1.30,7.76,0.73
1.617,-1.17,-0.43,3.08,-1.30,7.76,0.73
1.617,-1.17,-0.43,3.08,-1.24,7.79,0.74
1.617,-1.17,-0.43,3.08,-1.18,7.83,0.75
1.618,-1.30,-0.14,3.99,-1.18,7.83,0.75
1.618,-1.30,-0.14,3.99,-1.11,7.87,0.77
1.619,-1.30,-0.14,3.99,-1.03,7.92,0.78
1.62,-1.39,0.09,4.92,-1.03,7.92,0.78
1.621,-1.39,0.09,4.92,-0.95,7.98,0.80
1.623,-1.39,0.09,4.92,-0.86,8.05,0.81
1.624,-1.50,0.24,5.94,-0.86,8.05,0.81
1.636,-1.50,0.24,5.94,-0.76,8.14,0.83
1.637,-1.50,0.24,5.94,-0.66,8.23,0.85
1.637,-1.57,0.36,6.86,-0.66,8.23,0.85
1.637,-1.57,0.36,6.86,-0.56,8.33,0.88
1.638,-1.57,0.36,6.86,-0.46,8.45,0.90
1.638,-1.61,0.52,7.51,-0.46,8.45,0.90
1.638,-1.61,0.52,7.51,-0.36,8.58,0.92
1.639,-1.61,0.52,7.51,-0.26,8.72,0.95
1.639,-1.63,0.70,7.80,-0.26,8.72,0.95
1.639,-1.63,0.70,7.80,-0.18,8.83,0.98
1.64,-1.63,0.70,7.80,-0.09,9.05,1.01
1.64,-1.61,0.81,7.60,-0.09,9.05,1.01
1.644,-1.61,0.81,7.60,-0.02,9.23,1.04
1.644,-1.61,0.81,7.60,0.04,9.42,1.07
1.645,-1.60,0.77,6.98,0.04,9.42,1.07
1.645,-1.60,0.77,6.98,0.09,9.62,1.09
1.648,-1.60,0.77,6.98,0.13,9.81,1.12
1.648,-1.53,0.62,6.01,0.13,9.81,1.12
1.649,-1.53,0.62,6.01,0.15,10.01,1.14
1.651,-1.53,0.62,6.01,0.16,10.20,1.17
1.652,-1.57,0.43,4.78,0.16,10.20,1.17
1.653,-1.57,0.43,4.78,0.14,10.38,1.19
1.655,-1.57,0.43,4.78,0.11,10.56,1.21
1.656,-1.70,0.20,3.39,0.11,10.56,1.21
1.658,-1.70,0.20,3.39,0.07,10.73,1.23
1.659,-1.70,0.20,3.39,0.01,10.89,1.25
1.66,-1.86,-0.07,1.97,0.01,10.89,1.25
1.661,-1.86,-0.07,1.97,-0.07,11.03,1.29
1.664,-1.86,-0.07,1.97,-0.15,11.14,1.32
1.664,-2.04,-0.36,0.63,-0.15,11.14,1.32
1.665,-2.04,-0.36,0.63,-0.24,11.23,1.36
1.667,-2.04,-0.36,0.63,-0.33,11.28,1.42
1.667,-2.35,-0.66,-0.71,-0.33,11.28,1.42
1.669,-2.35,-0.66,-0.71,-0.43,11.31,1.48
1.671,-2.35,-0.66,-0.71,-0.54,11.31,1.54
1.671,-2.86,-0.96,-1.88,-0.54,11.31,1.54
1.673,-2.86,-0.96,-1.88,-0.63,11.28,1.62
1.675,-2.86,-0.96,-1.88,-0.72,11.21,1.70
1.676,-3.37,-1.28,-2.83,-0.72,11.21,1.70
1.677,-3.37,-1.28,-2.83,-0.81,11.12,1.78
1.679,-3.37,-1.28,-2.83,-0.89,10.99,1.86
1.68,-3.83,-1.58,-3.42,-0.89,10.99,1.86
1.681,-3.83,-1.58,-3.42,-0.97,10.85,1.95
1.683,-3.83,-1.58,-3.42,-1.03,10.68,2.04
1.684,-4.15,-1.80,-3.88,-1.03,10.68,2.04
1.685,-4.15,-1.80,-3.88,-1.09,10.49,2.13
1.687,-4.15,-1.80,-3.88,-1.13,10.29,2.22
1.687,-4.46,-1.82,-4.17,-1.13,10.29,2.22
1.689,-4.46,-1.82,-4.17,-1.17,10.07,2.30
1.691,-4.46,-1.82,-4.17,-1.19,9.85,2.37
1.692,-4.56,-1.68,-4.23,-1.19,9.85,2.37
1.693,-4.56,-1.68,-4.23,-1.20,9.62,2.44
1.695,-4.56,-1.68,-4.23,-1.20,9.38,2.50
1.696,-4.39,-1.45,-4.12,-1.20,9.38,2.50
1.697,-4.39,-1.45,-4.12,-1.19,9.14,2.55
1.699,-4.39,-1.45,-4.12,-1.16,8.89,2.60
1.7,-4.15,-1.27,-3.72,-1.16,8.89,2.60
1.701,-4.15,-1.27,-3.72,-1.14,8.63,2.65
1.703,-4.15,-1.27,-3.72,-1.10,8.36,2.69
1.703,-4.01,-1.17,-3.18,-1.10,8.36,2.69
1.705,-4.01,-1.17,-3.18,-1.06,8.08,2.74
1.708,-4.01,-1.17,-3.18,-1.02,7.80,2.79
1.709,-4.06,-1.12,-2.93,-1.02,7.80,2.79
1.709,-4.06,-1.12,-2.93,-0.97,7.51,2.84
1.711,-4.06,-1.12,-2.93,-0.92,7.22,2.88
1.711,-4.20,-0.99,-3.00,-0.92,7.22,2.88
1.713,-4.20,-0.99,-3.00,-0.86,6.93,2.92
1.715,-4.20,-0.99,-3.00,-0.82,6.68,2.96
1.716,-4.10,-0.74,-3.24,-0.82,6.68,2.96
1.717,-4.10,-0.74,-3.24,-0.77,6.34,2.99
1.719,-4.10,-0.74,-3.24,-0.74,5.99,3.01
1.722,-3.84,-0.37,-3.65,-0.74,5.99,3.01
1.722,-3.84,-0.37,-3.65,-0.70,5.67,3.02
1.723,-3.84,-0.37,-3.65,-0.67,5.35,3.03
1.723,-3.49,0.09,-4.14,-0.67,5.35,3.03
1.725,-3.49,0.09,-4.14,-0.65,5.03,3.02
1.727,-3.49,0.09,-4.14,-0.63,4.72,3.01
1.727,-3.05,0.61,-4.48,-0.63,4.72,3.01
1.729,-3.05,0.61,-4.48,-0.61,4.42,3.00
1.731,-3.05,0.61,-4.48,-0.60,4.13,2.98
1.732,-2.63,1.09,-4.68,-0.60,4.13,2.98
1.733,-2.63,1.09,-4.68,-0.60,3.86,2.95
1.735,-2.25,1.49,-4.91,-0.60,3.86,2.95
1.735,-2.25,1.49,-4.91,-0.60,3.60,2.93
1.737,-2.25,1.49,-4.91,-0.62,3.36,2.90
1.739,-2.25,1.49,-4.91,-0.64,3.15,2.86
1.739,-1.87,1.79,-5.04,-0.64,3.15,2.86
1.748,-1.87,1.79,-5.04,-0.66,2.94,2.82
1.749,-1.39,1.95,-4.95,-0.66,2.94,2.82
1.749,-1.39,1.95,-4.95,-0.68,2.76,2.78
1.749,-1.39,1.95,-4.95,-0.72,2.61,2.74
1.75,-0.88,1.99,-4.62,-0.72,2.61,2.74
1.75,-0.88,1.99,-4.62,-0.76,2.47,2.69
1.75,-0.88,1.99,-4.62,-0.79,2.36,2.65
1.751,-0.88,1.99,-4.62,-0.83,2.26,2.60
1.751,-0.40,2.02,-4.08,-0.83,2.26,2.60
1.753,-0.40,2.02,-4.08,-0.88,2.18,2.54
1.755,-0.40,2.02,-4.08,-0.91,2.14,2.49
1.756,0.02,2.05,-3.47,-0.91,2.14,2.49
1.757,0.02,2.05,-3.47,-0.95,2.11,2.43
1.769,0.02,2.05,-3.47,-0.99,2.09,2.37
1.769,0.51,2.04,-2.44,-0.99,2.09,2.37
1.77,0.51,2.04,-2.44,-1.02,2.10,2.30
1.77,0.51,2.04,-2.44,-1.04,2.12,2.23
1.77,1.13,2.14,-1.48,-1.04,2.12,2.23
1.771,1.13,2.14,-1.48,-1.06,2.15,2.15
1.771,1.13,2.14,-1.48,-1.07,2.20,2.06
1.771,1.87,2.16,-0.42,-1.07,2.20,2.06
1.772,1.87,2.16,-0.42,-1.07,2.27,1.97
1.772,1.87,2.16,-0.42,-1.07,2.36,1.88
1.772,2.60,2.15,0.80,-1.07,2.36,1.88
1.773,2.60,2.15,0.80,-1.06,2.46,1.78
1.781,2.60,2.15,0.80,-1.04,2.58,1.68
1.782,3.27,2.09,1.98,-1.04,2.58,1.68
1.782,3.27,2.09,1.98,-1.01,2.71,1.58
1.783,3.27,2.09,1.98,-0.98,2.86,1.48
1.783,3.83,1.99,3.06,-0.98,2.86,1.48
1.783,3.83,1.99,3.06,-0.94,3.00,1.38
1.784,3.83,1.99,3.06,-0.91,3.13,1.28
1.784,4.24,1.96,3.86,-0.91,3.13,1.28
1.785,4.24,1.96,3.86,-0.87,3.27,1.19
1.787,4.24,1.96,3.86,-0.82,3.40,1.09
1.787,4.42,1.92,4.39,-0.82,3.40,1.09
1.788,4.42,1.92,4.39,-0.77,3.53,0.99
1.791,4.42,1.92,4.39,-0.72,3.65,0.89
1.792,4.55,1.94,4.83,-0.72,3.65,0.89
1.792,4.55,1.94,4.83,-0.67,3.75,0.80
1.795,4.55,1.94,4.83,-0.62,3.85,0.70
1.795,4.62,1.93,5.05,-0.62,3.85,0.70
1.796,4.62,1.93,5.05,-0.57,3.92,0.62
1.799,4.62,1.93,5.05,-0.53,3.98,0.54
1.799,4.44,1.73,5.24,-0.53,3.98,0.54
1.8,4.44,1.73,5.24,-0.50,4.03,0.47
1.803,4.44,1.73,5.24,-0.48,4.07,0.41
1.803,3.49,1.28,4.81,-0.48,4.07,0.41
1.804,3.49,1.28,4.81,-0.47,4.10,0.37
1.807,3.49,1.28,4.81,-0.46,4.13,0.34
1.807,2.11,0.72,4.00,-0.46,4.13,0.34
1.808,2.11,0.72,4.00,-0.46,4.16,0.31
1.811,2.11,0.72,4.00,-0.46,4.16,0.29
1.811,0.87,0.03,3.23,-0.46,4.16,0.29
1.813,0.87,0.03,3.23,-0.47,4.16,0.29
1.815,0.87,0.03,3.23,-0.47,4.14,0.28
1.815,0.02,-0.75,2.61,-0.47,4.14,0.28
1.816,0.02,-0.75,2.61,-0.48,4.11,0.29
1.819,0.02,-0.75,2.61,-0.48,4.05,0.29
1.819,-0.43,-1.43,2.16,-0.48,4.05,0.29
1.82,-0.43,-1.43,2.16,-0.48,3.97,0.29
1.823,-0.43,-1.43,2.16,-0.48,3.88,0.30
1.823,-0.41,-2.00,1.69,-0.48,3.88,0.30
1.831,-0.41,-2.00,1.69,-0.48,3.78,0.30
1.832,-0.41,-2.00,1.69,-0.47,3.70,0.29
1.832,-0.24,-2.37,1.29,-0.47,3.70,0.29
1.832,-0.24,-2.37,1.29,-0.46,3.62,0.29
1.833,-0.24,-2.37,1.29,-0.44,3.53,0.28
1.833,-0.27,-2.41,1.47,-0.44,3.53,0.28
1.833,-0.27,-2.41,1.47,-0.41,3.45,0.27
1.835,-0.27,-2.41,1.47,-0.37,3.36,0.26
1.835,-0.15,-2.17,1.86,-0.37,3.36,0.26
1.836,-0.15,-2.17,1.86,-0.34,3.28,0.25
1.839,-0.15,-2.17,1.86,-0.30,3.21,0.23
1.839,0.22,-1.85,2.04,-0.30,3.21,0.23
1.84,0.22,-1.85,2.04,-0.25,3.14,0.21
1.851,0.22,-1.85,2.04,-0.21,3.09,0.18
1.852,0.69,-1.56,2.07,-0.21,3.09,0.18
1.853,0.69,-1.56,2.07,-0.17,3.03,0.16
1.853,0.69,-1.56,2.07,-0.14,2.98,0.13
1.853,1.15,-1.32,1.90,-0.14,2.98,0.13
1.853,1.15,-1.32,1.90,-0.11,2.94,0.10
1.854,1.15,-1.32,1.90,-0.08,2.90,0.07
1.854,1.55,-1.16,1.44,-0.08,2.90,0.07
1.857,1.55,-1.16,1.44,-0.05,2.86,0.04
1.857,1.55,-1.16,1.44,-0.03,2.82,0.00
1.858,1.78,-0.94,1.01,-0.03,2.82,0.00
1.858,1.78,-0.94,1.01,-0.01,2.77,-0.03
1.859,1.78,-0.94,1.01,0.01,2.72,-0.06
1.86,1.88,-0.74,0.70,0.01,2.72,-0.06
1.86,1.88,-0.74,0.70,0.04,2.68,-0.10
1.863,1.88,-0.74,0.70,0.06,2.63,-0.13
1.863,1.93,-0.60,0.59,0.06,2.63,-0.13
1.864,1.93,-0.60,0.59,0.08,2.59,-0.17
1.866,1.93,-0.60,0.59,0.10,2.55,-0.20
1.867,1.97,-0.58,0.63,0.10,2.55,-0.20
1.868,1.97,-0.58,0.63,0.13,2.52,-0.23
1.87,1.97,-0.58,0.63,0.15,2.50,-0.26
1.871,1.83,-0.54,0.71,0.15,2.50,-0.26
1.872,1.83,-0.54,0.71,0.17,2.48,-0.29
1.875,1.83,-0.54,0.71,0.19,2.47,-0.33
1.875,1.56,-0.45,0.75,0.19,2.47,-0.33
1.876,1.56,-0.45,0.75,0.21,2.47,-0.35
1.879,1.56,-0.45,0.75,0.22,2.47,-0.38
1.879,1.29,-0.26,0.71,0.22,2.47,-0.38
1.88,1.29,-0.26,0.71,0.23,2.49,-0.41
1.883,1.29,-0.26,0.71,0.23,2.51,-0.44
1.883,1.11,-0.17,0.58,0.23,2.51,-0.44
1.884,1.11,-0.17,0.58,0.24,2.54,-0.47
1.887,1.11,-0.17,0.58,0.24,2.57,-0.50
1.887,0.92,-0.10,0.49,0.24,2.57,-0.50
1.888,0.92,-0.10,0.49,0.24,2.62,-0.53
1.891,0.92,-0.10,0.49,0.23,2.66,-0.56
1.892,0.76,-0.05,0.24,0.23,2.66,-0.56
1.892,0.76,-0.05,0.24,0.22,2.71,-0.59
1.895,0.76,-0.05,0.24,0.21,2.76,-0.63
1.895,0.59,0.09,-0.15,0.21,2.76,-0.63
1.896,0.59,0.09,-0.15,0.19,2.80,-0.66
1.899,0.59,0.09,-0.15,0.18,2.84,-0.69
1.899,0.25,0.30,-0.46,0.18,2.84,-0.69
1.9,0.25,0.30,-0.46,0.17,2.88,-0.71
1.902,0.25,0.30,-0.46,0.16,2.92,-0.74
1.903,-0.33,0.42,-0.54,0.16,2.92,-0.74
1.904,-0.33,0.42,-0.54,0.15,2.96,-0.75
1.906,-0.33,0.42,-0.54,0.15,2.99,-0.75
1.907,-1.06,0.41,-0.46,0.15,2.99,-0.75
1.908,-1.06,0.41,-0.46,0.14,3.03,-0.76
1.91,-1.06,0.41,-0.46,0.13,3.06,-0.76
1.911,-1.73,0.32,-0.46,0.13,3.06,-0.76
1.912,-1.73,0.32,-0.46,0.13,3.09,-0.76
1.915,-1.73,0.32,-0.46,0.12,3.11,-0.76
1.915,-2.25,0.21,-0.64,0.12,3.11,-0.76
1.916,-2.25,0.21,-0.64,0.11,3.11,-0.76
1.918,-2.25,0.21,-0.64,0.11,3.11,-0.75
1.919,-2.48,0.19,-0.83,0.11,3.11,-0.75
1.92,-2.48,0.19,-0.83,0.10,3.09,-0.75
1.922,-2.48,0.19,-0.83,0.11,3.06,-0.74
1.923,-2.66,0.23,-0.81,0.11,3.06,-0.74
1.931,-2.66,0.23,-0.81,0.11,3.02,-0.73
1.932,-2.66,0.23,-0.81,0.12,2.97,-0.72
1.932,-2.87,0.23,-0.61,0.12,2.97,-0.72
1.933,-2.87,0.23,-0.61,0.13,2.91,-0.70
1.933,-2.87,0.23,-0.61,0.15,2.84,-0.69
1.933,-2.89,0.12,-0.21,0.15,2.84,-0.69
1.934,-2.89,0.12,-0.21,0.17,2.78,-0.67
1.935,-2.89,0.12,-0.21,0.20,2.72,-0.66
1.935,-2.58,0.03,0.37,0.20,2.72,-0.66
1.936,-2.58,0.03,0.37,0.22,2.66,-0.66
1.938,-2.58,0.03,0.37,0.25,2.62,-0.66
1.939,-1.89,0.00,0.98,0.25,2.62,-0.66
1.94,-1.89,0.00,0.98,0.28,2.58,-0.67
1.953,-1.89,0.00,0.98,0.30,2.57,-0.68
1.954,-0.97,0.11,1.49,0.30,2.57,-0.68
1.955,-0.97,0.11,1.49,0.32,2.56,-0.71
1.955,-0.97,0.11,1.49,0.33,2.57,-0.73
1.955,-0.01,0.28,1.88,0.33,2.57,-0.73
1.955,-0.01,0.28,1.88,0.34,2.59,-0.76
1.956,-0.01,0.28,1.88,0.34,2.61,-0.79
1.956,0.71,0.51,2.01,0.34,2.61,-0.79
1.956,0.71,0.51,2.01,0.34,2.64,-0.83
1.957,0.71,0.51,2.01,0.34,2.68,-0.86
1.957,1.25,0.76,2.06,0.34,2.68,-0.86
1.957,1.25,0.76,2.06,0.34,2.72,-0.90
1.961,1.25,0.76,2.06,0.33,2.76,-0.94
1.962,1.68,0.94,2.22,0.33,2.76,-0.94
1.962,1.68,0.94,2.22,0.33,2.81,-0.99
1.962,1.68,0.94,2.22,0.33,2.86,-1.04
1.963,2.11,0.97,2.43,0.33,2.86,-1.04
1.964,2.11,0.97,2.43,0.33,2.90,-1.09
1.966,2.11,0.97,2.43,0.32,2.94,-1.14
1.967,2.39,0.99,2.55,0.32,2.94,-1.14
1.968,2.39,0.99,2.55,0.30,2.96,-1.20
1.97,2.39,0.99,2.55,0.25,2.96,-1.26
1.971,2.47,0.91,2.42,0.25,2.96,-1.26
1.972,2.47,0.91,2.42,0.21,3.01,-1.30
1.975,2.47,0.91,2.42,0.18,3.08,-1.34
1.975,2.48,0.09,1.40,0.18,3.08,-1.34
1.976,2.48,0.09,1.40,0.17,3.16,-1.38
1.978,2.48,0.09,1.40,0.16,3.23,-1.40
1.978,1.51,0.30,2.11,0.16,3.23,-1.40
1.98,1.51,0.30,2.11,0.15,3.29,-1.42
1.982,1.51,0.30,2.11,0.15,3.35,-1.44
1.983,0.97,0.55,2.58,0.15,3.35,-1.44
1.984,0.97,0.55,2.58,0.16,3.40,-1.44
1.986,0.97,0.55,2.58,0.17,3.45,-1.45
1.986,0.56,0.68,2.79,0.17,3.45,-1.45
1.988,0.56,0.68,2.79,0.18,3.49,-1.46
1.99,0.56,0.68,2.79,0.20,3.53,-1.47
1.99,0.39,0.78,3.05,0.20,3.53,-1.47
1.992,0.39,0.78,3.05,0.22,3.56,-1.47
1.994,0.39,0.78,3.05,0.25,3.60,-1.47
1.995,0.29,0.77,3.08,0.25,3.60,-1.47
1.996,0.29,0.77,3.08,0.28,3.64,-1.48
1.998,0.29,0.77,3.08,0.31,3.69,-1.49
1.999,0.36,0.80,3.33,0.31,3.69,-1.49
2.0,0.36,0.80,3.33,0.33,3.75,-1.49
2.002,0.36,0.80,3.33,0.36,3.82,-1.49
2.002,0.38,0.71,3.17,0.36,3.82,-1.49
2.004,0.38,0.71,3.17,0.38,3.90,-1.48
2.006,0.38,0.71,3.17,0.39,4.00,-1.47
2.006,0.34,0.66,2.96,0.39,4.00,-1.47
2.008,0.34,0.66,2.96,0.41,4.11,-1.46
2.01,0.34,0.66,2.96,0.41,4.23,-1.45
2.01,0.27,0.72,2.34,0.41,4.23,-1.45
2.012,0.27,0.72,2.34,0.41,4.33,-1.43
2.014,0.27,0.72,2.34,0.40,4.43,-1.42
2.015,0.14,0.95,1.77,0.40,4.43,-1.42
2.016,0.14,0.95,1.77,0.39,4.52,-1.41
2.018,0.14,0.95,1.77,0.38,4.62,-1.41
2.018,0.15,1.13,1.05,0.38,4.62,-1.41
2.02,0.15,1.13,1.05,0.37,4.73,-1.40
2.022,0.15,1.13,1.05,0.37,4.82,-1.40
2.022,0.08,1.21,0.87,0.37,4.82,-1.40
2.024,0.08,1.21,0.87,0.36,4.91,-1.40
2.026,0.08,1.21,0.87,0.36,5.00,-1.41
2.027,0.34,1.17,0.88,0.36,5.00,-1.41
2.028,0.34,1.17,0.88,0.35,5.06,-1.42
2.03,0.34,1.17,0.88,0.35,5.13,-1.44
2.031,0.81,1.13,1.02,0.35,5.13,-1.44
2.032,0.81,1.13,1.02,0.34,5.19,-1.45
2.034,0.81,1.13,1.02,0.34,5.26,-1.47
2.035,1.12,1.06,1.25,0.34,5.26,-1.47
2.036,1.12,1.06,1.25,0.35,5.33,-1.48
2.038,1.12,1.06,1.25,0.36,5.40,-1.49
2.038,0.95,1.09,1.70,0.36,5.40,-1.49
2.04,0.95,1.09,1.70,0.37,5.46,-1.49
2.048,0.95,1.09,1.70,0.37,5.53,-1.48
2.049,0.35,1.30,2.22,0.37,5.53,-1.48
2.049,0.35,1.30,2.22,0.38,5.59,-1.47
2.05,0.35,1.30,2.22,0.39,5.64,-1.46
2.05,-0.38,1.53,2.46,0.39,5.64,-1.46
2.051,-0.38,1.53,2.46,0.41,5.69,-1.45
2.051,-0.38,1.53,2.46,0.42,5.73,-1.44
2.051,-0.80,1.67,2.81,0.42,5.73,-1.44
2.052,-0.80,1.67,2.81,0.45,5.75,-1.43
2.054,-0.80,1.67,2.81,0.47,5.77,-1.42
2.055,-0.83,1.64,3.20,0.47,5.77,-1.42
2.056,-0.83,1.64,3.20,0.50,5.77,-1.41
2.069,-0.83,1.64,3.20,0.53,5.76,-1.39
2.07,-0.69,1.49,3.52,0.53,5.76,-1.39
2.07,-0.69,1.49,3.52,0.56,5.75,-1.36
2.071,-0.69,1.49,3.52,0.60,5.73,-1.33
2.071,-0.89,1.26,3.72,0.60,5.73,-1.33
2.071,-0.89,1.26,3.72,0.64,5.70,-1.28
2.072,-0.89,1.26,3.72,0.68,5.65,-1.23
2.072,-1.24,1.05,3.97,0.68,5.65,-1.23
2.072,-1.24,1.05,3.97,0.72,5.59,-1.17
2.073,-1.24,1.05,3.97,0.77,5.51,-1.10
2.073,-1.93,0.98,4.21,0.77,5.51,-1.10
2.073,-1.93,0.98,4.21,0.82,5.43,-1.04
2.076,-1.93,0.98,4.21,0.87,5.35,-0.97
2.077,-2.61,1.13,4.38,0.87,5.35,-0.97
2.077,-2.61,1.13,4.38,0.93,5.25,-0.90
2.078,-2.61,1.13,4.38,0.98,5.14,-0.83
2.078,-3.24,1.40,4.59,0.98,5.14,-0.83
2.08,-3.24,1.40,4.59,1.04,5.04,-0.76
2.082,-3.24,1.40,4.59,1.11,4.93,-0.69
2.082,-3.52,1.57,4.66,1.11,4.93,-0.69
2.083,-3.52,1.57,4.66,1.17,4.80,-0.62
2.086,-3.52,1.57,4.66,1.22,4.67,-0.56
2.086,-3.41,1.83,4.67,1.22,4.67,-0.56
2.087,-3.41,1.83,4.67,1.26,4.51,-0.51
2.09,-3.41,1.83,4.67,1.29,4.33,-0.45
2.09,-3.12,2.22,3.98,1.29,4.33,-0.45
2.092,-3.12,2.22,3.98,1.29,4.14,-0.39
2.094,-3.12,2.22,3.98,1.28,3.92,-0.34
2.094,-2.83,2.77,2.52,1.28,3.92,-0.34
2.096,-2.83,2.77,2.52,1.26,3.69,-0.29
2.098,-2.83,2.77,2.52,1.23,3.45,-0.24
2.099,-2.56,2.93,0.44,1.23,3.45,-0.24
2.1,-2.56,2.93,0.44,1.20,3.20,-0.20
2.102,-2.56,2.93,0.44,1.17,2.96,-0.15
2.102,-2.05,2.62,-0.51,1.17,2.96,-0.15
2.103,-2.05,2.62,-0.51,1.13,2.73,-0.10
2.106,-2.05,2.62,-0.51,1.09,2.51,-0.05
2.106,-1.86,2.48,-1.13,1.09,2.51,-0.05
2.108,-1.86,2.48,-1.13,1.06,2.30,0.00
2.11,-1.86,2.48,-1.13,1.03,2.12,0.05
2.11,-1.79,2.40,-1.49,1.03,2.12,0.05
2.111,-1.79,2.40,-1.49,1.00,1.94,0.11
2.114,-1.79,2.40,-1.49,0.97,1.79,0.16
2.115,-1.64,2.20,-1.69,0.97,1.79,0.16
2.115,-1.64,2.20,-1.69,0.94,1.65,0.20
2.118,-1.64,2.20,-1.69,0.91,1.54,0.24
2.121,-1.44,1.96,-1.85,0.91,1.54,0.24
2.121,-1.44,1.96,-1.85,0.87,1.44,0.28
2.122,-1.44,1.96,-1.85,0.84,1.35,0.32
2.122,-1.11,1.72,-2.10,0.84,1.35,0.32
2.123,-1.11,1.72,-2.10,0.80,1.29,0.35
2.126,-1.11,1.72,-2.10,0.76,1.24,0.39
2.126,-0.89,1.59,-2.42,0.76,1.24,0.39
2.127,-0.89,1.59,-2.42,0.72,1.20,0.42
2.13,-0.89,1.59,-2.42,0.67,1.18,0.44
2.13,-0.63,1.52,-2.76,0.67,1.18,0.44
2.131,-0.63,1.52,-2.76,0.61,1.15,0.45
2.134,-0.63,1.52,-2.76,0.56,1.13,0.46
2.134,-0.08,1.49,-3.23,0.56,1.13,0.46
2.135,-0.08,1.49,-3.23,0.50,1.11,0.46
2.137,-0.08,1.49,-3.23,0.44,1.10,0.46
2.138,0.67,1.47,-3.68,0.44,1.10,0.46
2.139,0.67,1.47,-3.68,0.38,1.08,0.45
2.145,0.67,1.47,-3.68,0.32,1.06,0.43
2.145,1.39,1.63,-4.00,0.32,1.06,0.43
2.145,1.39,1.63,-4.00,0.24,1.04,0.40
2.146,1.39,1.63,-4.00,0.17,0.99,0.37
2.146,2.01,1.91,-4.46,0.17,0.99,0.37
2.147,2.01,1.91,-4.46,0.10,0.94,0.33
2.15,2.01,1.91,-4.46,0.02,0.88,0.28
2.15,2.52,2.25,-5.07,0.02,0.88,0.28
2.151,2.52,2.25,-5.07,-0.06,0.82,0.22
2.154,2.52,2.25,-5.07,-0.13,0.75,0.15
2.154,3.23,2.50,-5.40,-0.13,0.75,0.15
2.155,3.23,2.50,-5.40,-0.20,0.67,0.07
2.158,3.23,2.50,-5.40,-0.27,0.59,-0.02
2.159,3.95,2.55,-5.46,-0.27,0.59,-0.02
2.159,3.95,2.55,-5.46,-0.33,0.50,-0.10
2.161,3.95,2.55,-5.46,-0.38,0.41,-0.19
2.162,4.29,2.67,-5.35,-0.38,0.41,-0.19
2.163,4.29,2.67,-5.35,-0.43,0.32,-0.28
2.165,4.29,2.67,-5.35,-0.47,0.22,-0.37
2.166,4.29,2.92,-4.99,-0.47,0.22,-0.37
2.167,4.29,2.92,-4.99,-0.51,0.13,-0.46
2.169,4.29,2.92,-4.99,-0.55,0.03,-0.56
2.17,4.50,2.93,-4.71,-0.55,0.03,-0.56
2.171,4.50,2.93,-4.71,-0.58,-0.08,-0.64
2.174,4.50,2.93,-4.71,-0.61,-0.19,-0.72
2.174,4.50,2.78,-4.16,-0.61,-0.19,-0.72
2.175,4.50,2.78,-4.16,-0.63,-0.32,-0.79
2.177,4.50,2.78,-4.16,-0.65,-0.46,-0.86
2.178,4.27,2.58,-3.74,-0.65,-0.46,-0.86
2.179,4.27,2.58,-3.74,-0.67,-0.60,-0.93
2.182,4.27,2.58,-3.74,-0.68,-0.76,-0.99
2.182,4.12,2.18,-3.09,-0.68,-0.76,-0.99
2.183,4.12,2.18,-3.09,-0.68,-0.93,-1.04
2.185,4.12,2.18,-3.09,-0.67,-1.10,-1.10
2.186,3.99,1.71,-2.39,-0.67,-1.10,-1.10
2.187,3.99,1.71,-2.39,-0.64,-1.29,-1.16
2.189,3.99,1.71,-2.39,-0.60,-1.45,-1.21
2.19,3.95,1.05,-1.14,-0.60,-1.45,-1.21
2.191,3.95,1.05,-1.14,-0.55,-1.60,-1.26
2.194,3.95,1.05,-1.14,-0.50,-1.70,-1.30
2.194,4.03,0.34,0.47,-0.50,-1.70,-1.30
2.195,4.03,0.34,0.47,-0.45,-1.78,-1.33
2.198,4.03,0.34,0.47,-0.39,-1.82,-1.35
2.198,4.01,-0.52,1.69,-0.39,-1.82,-1.35
2.199,4.01,-0.52,1.69,-0.33,-1.85,-1.38
2.201,4.01,-0.52,1.69,-0.25,-1.86,-1.39
2.201,3.75,-1.43,2.92,-0.25,-1.86,-1.39
2.203,3.75,-1.43,2.92,-0.18,-1.86,-1.41
2.205,3.75,-1.43,2.92,-0.10,-1.87,-1.42
2.206,3.37,-1.93,3.82,-0.10,-1.87,-1.42
2.207,3.37,-1.93,3.82,-0.02,-1.86,-1.42
2.209,3.37,-1.93,3.82,0.03,-1.82,-1.40
2.21,3.16,-2.26,4.64,0.03,-1.82,-1.40
2.211,3.16,-2.26,4.64,0.08,-1.77,-1.37
2.214,3.16,-2.26,4.64,0.12,-1.69,-1.33
2.214,1.99,-2.35,4.37,0.12,-1.69,-1.33
2.215,1.99,-2.35,4.37,0.13,-1.59,-1.29
2.217,1.99,-2.35,4.37,0.13,-1.47,-1.24
2.218,1.36,-2.45,3.62,0.13,-1.47,-1.24
2.219,1.36,-2.45,3.62,0.12,-1.31,-1.18
2.221,1.36,-2.45,3.62,0.10,-1.13,-1.12
2.222,1.27,-3.32,2.67,0.10,-1.13,-1.12
2.223,1.27,-3.32,2.67,0.08,-0.95,-1.07
2.225,1.27,-3.32,2.67,0.06,-0.78,-1.02
2.226,0.97,-4.24,2.21,0.06,-0.78,-1.02
2.227,0.97,-4.24,2.21,0.04,-0.64,-0.97
2.229,0.97,-4.24,2.21,0.02,-0.54,-0.93
2.23,1.33,-5.13,1.76,0.02,-0.54,-0.93
2.231,1.33,-5.13,1.76,0.01,-0.47,-0.90
2.233,1.33,-5.13,1.76,0.00,-0.43,-0.87
2.234,1.68,-5.63,1.41,0.00,-0.43,-0.87
2.235,1.68,-5.63,1.41,0.00,-0.43,-0.84
2.237,1.68,-5.63,1.41,0.00,-0.45,-0.82
2.237,1.85,-5.63,1.22,0.00,-0.45,-0.82
2.239,1.85,-5.63,1.22,0.00,-0.49,-0.80
2.241,1.85,-5.63,1.22,0.00,-0.55,-0.79
2.242,2.06,-5.44,0.70,0.00,-0.55,-0.79
2.243,2.06,-5.44,0.70,0.01,-0.63,-0.78
2.245,2.06,-5.44,0.70,0.02,-0.73,-0.79
2.246,2.45,-5.10,0.14,0.02,-0.73,-0.79
2.247,2.45,-5.10,0.14,0.02,-0.83,-0.80
2.249,2.45,-5.10,0.14,0.04,-0.94,-0.81
2.25,3.04,-4.74,-0.11,0.04,-0.94,-0.81
2.253,3.04,-4.74,-0.11,0.05,-1.07,-0.83
2.253,3.04,-4.74,-0.11,0.07,-1.20,-0.86
2.254,3.68,-4.37,-0.33,0.07,-1.20,-0.86
2.255,3.68,-4.37,-0.33,0.09,-1.34,-0.88
2.258,3.68,-4.37,-0.33,0.10,-1.47,-0.91
2.259,4.14,-4.04,-0.45,0.10,-1.47,-0.91
2.259,4.14,-4.04,-0.45,0.13,-1.60,-0.94
2.261,4.14,-4.04,-0.45,0.15,-1.71,-0.98
2.261,4.53,-3.54,-0.47,0.15,-1.71,-0.98
2.263,4.53,-3.54,-0.47,0.17,-1.82,-1.02
2.265,4.53,-3.54,-0.47,0.19,-1.91,-1.06
2.266,4.81,-2.98,-0.40,0.19,-1.91,-1.06
2.267,4.81,-2.98,-0.40,0.21,-1.99,-1.10
2.269,4.81,-2.98,-0.40,0.22,-2.06,-1.15
2.269,5.07,-2.41,-0.56,0.22,-2.06,-1.15
2.271,5.07,-2.41,-0.56,0.23,-2.13,-1.21
2.273,5.07,-2.41,-0.56,0.23,-2.20,-1.27
2.274,5.45,-2.13,-0.75,0.23,-2.20,-1.27
2.281,5.45,-2.13,-0.75,0.23,-2.27,-1.34
2.282,5.45,-2.13,-0.75,0.22,-2.33,-1.40
2.282,5.74,-1.90,-1.05,0.22,-2.33,-1.40
2.283,5.74,-1.90,-1.05,0.20,-2.38,-1.47
2.283,5.74,-1.90,-1.05,0.18,-2.41,-1.55
2.283,5.87,-1.60,-1.31,0.18,-2.41,-1.55
2.284,5.87,-1.60,-1.31,0.15,-2.42,-1.62
2.285,5.87,-1.60,-1.31,0.11,-2.42,-1.70
2.286,6.01,-1.29,-1.56,0.11,-2.42,-1.70
2.287,6.01,-1.29,-1.56,0.07,-2.40,-1.77
2.289,6.01,-1.29,-1.56,0.02,-2.35,-1.85
2.29,6.08,-1.07,-1.77,0.02,-2.35,-1.85
2.301,6.08,-1.07,-1.77,-0.02,-2.31,-1.93
2.302,6.08,-1.07,-1.77,-0.07,-2.27,-2.01
2.303,6.01,-1.03,-1.83,-0.07,-2.27,-2.01
2.303,6.01,-1.03,-1.83,-0.13,-2.21,-2.09
2.303,6.01,-1.03,-1.83,-0.18,-2.15,-2.16
2.303,5.77,-1.07,-1.74,-0.18,-2.15,-2.16
2.304,5.77,-1.07,-1.74,-0.24,-2.08,-2.22
2.304,5.77,-1.07,-1.74,-0.30,-2.01,-2.29
2.305,5.39,-1.10,-1.53,-0.30,-2.01,-2.29
2.305,5.39,-1.10,-1.53,-0.36,-1.94,-2.35
2.305,5.39,-1.10,-1.53,-0.43,-1.86,-2.39
2.306,4.92,-0.97,-1.40,-0.43,-1.86,-2.39
2.307,4.92,-0.97,-1.40,-0.49,-1.79,-2.43
2.309,4.92,-0.97,-1.40,-0.55,-1.71,-2.47
2.31,4.40,-1.04,-1.37,-0.55,-1.71,-2.47
2.311,4.40,-1.04,-1.37,-0.61,-1.63,-2.51
2.313,4.40,-1.04,-1.37,-0.67,-1.55,-2.53
2.314,4.00,-0.66,-1.23,-0.67,-1.55,-2.53
2.315,4.00,-0.66,-1.23,-0.72,-1.45,-2.55
2.317,4.00,-0.66,-1.23,-0.77,-1.35,-2.55
2.318,3.59,-0.02,-1.12,-0.77,-1.35,-2.55
2.319,3.59,-0.02,-1.12,-0.82,-1.25,-2.55
2.321,3.59,-0.02,-1.12,-0.87,-1.13,-2.53
2.321,2.60,0.66,-1.09,-0.87,-1.13,-2.53
2.323,2.60,0.66,-1.09,-0.92,-1.00,-2.50
2.325,2.60,0.66,-1.09,-0.97,-0.85,-2.46
2.326,1.41,1.18,-1.30,-0.97,-0.85,-2.46
2.327,1.41,1.18,-1.30,-1.01,-0.70,-2.42
2.329,1.41,1.18,-1.30,-1.05,-0.56,-2.35
2.33,0.22,1.31,-1.76,-1.05,-0.56,-2.35
2.331,0.22,1.31,-1.76,-1.09,-0.44,-2.28
2.333,0.22,1.31,-1.76,-1.12,-0.36,-2.19
2.334,-0.85,1.74,-1.49,-1.12,-0.36,-2.19
2.335,-0.85,1.74,-1.49,-1.14,-0.30,-2.09
2.337,-0.85,1.74,-1.49,-1.17,-0.24,-1.99
2.337,-1.26,2.24,-1.26,-1.17,-0.24,-1.99
2.339,-1.26,2.24,-1.26,-1.19,-0.18,-1.88
2.341,-1.26,2.24,-1.26,-1.19,-0.12,-1.77
2.342,-1.63,2.46,-0.99,-1.19,-0.12,-1.77
2.343,-1.63,2.46,-0.99,-1.20,-0.02,-1.70
2.345,-1.63,2.46,-0.99,-1.21,0.11,-1.63
2.345,-1.74,2.84,-0.33,-1.21,0.11,-1.63
2.347,-1.74,2.84,-0.33,-1.22,0.27,-1.56
2.349,-1.74,2.84,-0.33,-1.23,0.42,-1.49
2.349,-2.03,3.15,0.08,-1.23,0.42,-1.49
2.351,-2.03,3.15,0.08,-1.24,0.58,-1.42
2.353,-2.03,3.15,0.08,-1.25,0.73,-1.36
2.353,-2.03,3.25,-0.07,-1.25,0.73,-1.36
2.355,-2.03,3.25,-0.07,-1.27,0.89,-1.29
2.357,-2.03,3.25,-0.07,-1.29,1.05,-1.22
2.357,-2.04,3.16,-0.44,-1.29,1.05,-1.22
2.359,-2.04,3.16,-0.44,-1.31,1.22,-1.16
2.361,-2.04,3.16,-0.44,-1.33,1.39,-1.08
2.361,-2.07,3.10,-0.82,-1.33,1.39,-1.08
2.363,-2.07,3.10,-0.82,-1.36,1.56,-1.01
2.365,-2.07,3.10,-0.82,-1.40,1.74,-0.93
2.366,-2.25,3.11,-1.30,-1.40,1.74,-0.93
2.366,-2.25,3.11,-1.30,-1.45,1.91,-0.84
2.369,-2.25,3.11,-1.30,-1.49,2.07,-0.75
2.369,-2.35,3.12,-1.70,-1.49,2.07,-0.75
2.37,-2.35,3.12,-1.70,-1.54,2.21,-0.67
2.373,-2.35,3.12,-1.70,-1.59,2.35,-0.58
2.373,-2.44,2.99,-1.92,-1.59,2.35,-0.58
2.381,-2.44,2.99,-1.92,-1.64,2.47,-0.50
2.382,-2.44,2.99,-1.92,-1.71,2.62,-0.41
2.383,-1.98,3.05,-1.96,-1.71,2.62,-0.41
2.383,-1.98,3.05,-1.96,-1.77,2.76,-0.32
2.383,-1.98,3.05,-1.96,-1.83,2.89,-0.23
2.384,-1.71,3.04,-2.24,-1.83,2.89,-0.23
2.384,-1.71,3.04,-2.24,-1.88,2.99,-0.15
2.387,-1.71,3.04,-2.24,-1.90,3.07,-0.06
2.387,-1.61,3.12,-2.21,-1.90,3.07,-0.06
2.387,-1.61,3.12,-2.21,-1.92,3.13,0.03
2.389,-1.61,3.12,-2.21,-1.91,3.19,0.11
2.389,-1.48,3.33,-1.19,-1.91,3.19,0.11
2.39,-1.48,3.33,-1.19,-1.89,3.24,0.20
2.402,-1.48,3.33,-1.19,-1.85,3.27,0.29
2.403,-1.58,3.36,-0.10,-1.85,3.27,0.29
2.403,-1.58,3.36,-0.10,-1.80,3.28,0.37
2.403,-1.58,3.36,-0.10,-1.74,3.26,0.46
2.403,-1.63,3.27,1.30,-1.74,3.26,0.46
2.404,-1.63,3.27,1.30,-1.67,3.20,0.54
2.404,-1.63,3.27,1.30,-1.59,3.11,0.62
2.405,-1.57,3.09,2.14,-1.59,3.11,0.62
2.405,-1.57,3.09,2.14,-1.49,2.99,0.70
2.405,-1.57,3.09,2.14,-1.41,2.87,0.77
2.406,-1.71,2.67,2.91,-1.41,2.87,0.77
2.406,-1.71,2.67,2.91,-1.32,2.75,0.84
2.41,-1.71,2.67,2.91,-1.23,2.61,0.91
2.41,-1.56,2.50,2.86,-1.23,2.61,0.91
2.411,-1.56,2.50,2.86,-1.14,2.46,0.98
2.413,-1.56,2.50,2.86,-1.05,2.31,1.03
2.413,-1.75,2.30,2.40,-1.05,2.31,1.03
2.414,-1.75,2.30,2.40,-0.96,2.14,1.08
2.417,-1.75,2.30,2.40,-0.87,1.97,1.13
2.417,-1.65,2.16,2.04,-0.87,1.97,1.13
2.418,-1.65,2.16,2.04,-0.78,1.79,1.16
2.421,-1.65,2.16,2.04,-0.69,1.61,1.19
2.421,-1.31,1.92,1.66,-0.69,1.61,1.19
2.422,-1.31,1.92,1.66,-0.60,1.43,1.21
2.425,-1.31,1.92,1.66,-0.51,1.25,1.22
2.425,-1.21,1.64,1.16,-0.51,1.25,1.22
2.426,-1.21,1.64,1.16,-0.43,1.05,1.23
2.429,-1.21,1.64,1.16,-0.34,0.86,1.21
2.429,-1.10,1.27,0.47,-0.34,0.86,1.21
2.43,-1.10,1.27,0.47,-0.27,0.66,1.19
2.433,-1.10,1.27,0.47,-0.20,0.45,1.15
2.433,-1.03,0.83,-0.07,-0.20,0.45,1.15
2.434,-1.03,0.83,-0.07,-0.13,0.26,1.09
2.437,-1.03,0.83,-0.07,-0.06,0.06,1.02
2.437,-0.98,0.26,-0.83,-0.06,0.06,1.02
2.438,-0.98,0.26,-0.83,0.01,-0.13,0.92
2.442,-0.98,0.26,-0.83,0.07,-0.32,0.79
2.442,-0.76,-0.33,-1.10,0.07,-0.32,0.79
2.442,-0.76,-0.33,-1.10,0.12,-0.53,0.62
2.445,-0.76,-0.33,-1.10,0.17,-0.72,0.42
2.445,-0.20,-1.22,-1.47,0.17,-0.72,0.42
2.446,-0.20,-1.22,-1.47,0.22,-0.89,0.19
2.449,-0.20,-1.22,-1.47,0.27,-1.03,-0.06
2.449,0.60,-1.93,-1.32,0.27,-1.03,-0.06
2.45,0.60,-1.93,-1.32,0.31,-1.13,-0.34
2.453,0.60,-1.93,-1.32,0.35,-1.17,-0.63
2.453,1.25,-2.41,-0.86,0.35,-1.17,-0.63
2.454,1.25,-2.41,-0.86,0.39,-1.16,-0.93
2.457,1.25,-2.41,-0.86,0.44,-1.11,-1.23
2.457,1.84,-2.88,-0.08,0.44,-1.11,-1.23
2.458,1.84,-2.88,-0.08,0.49,-1.00,-1.53
2.461,1.84,-2.88,-0.08,0.54,-0.87,-1.81
2.461,1.93,-3.51,1.14,0.54,-0.87,-1.81
2.462,1.93,-3.51,1.14,0.58,-0.72,-2.08
2.465,1.93,-3.51,1.14,0.62,-0.55,-2.34
2.465,1.71,-3.86,1.90,0.62,-0.55,-2.34
2.466,1.71,-3.86,1.90,0.63,-0.38,-2.59
2.468,1.71,-3.86,1.90,0.62,-0.22,-2.83
2.469,1.56,-4.02,2.16,0.62,-0.22,-2.83
2.47,1.56,-4.02,2.16,0.60,-0.08,-3.06
2.473,1.56,-4.02,2.16,0.55,0.08,-3.27
2.473,1.58,-4.10,1.60,0.55,0.08,-3.27
2.475,1.58,-4.10,1.60,0.50,0.22,-3.46
2.476,1.58,-4.10,1.60,0.43,0.36,-3.64
2.477,1.66,-3.89,1.00,0.43,0.36,-3.64
2.478,1.66,-3.89,1.00,0.36,0.51,-3.81
2.481,1.66,-3.89,1.00,0.30,0.65,-3.95
2.481,1.57,-3.64,0.50,0.30,0.65,-3.95
2.482,1.57,-3.64,0.50,0.23,0.79,-4.08
2.484,1.57,-3.64,0.50,0.16,0.92,-4.19
2.485,1.40,-3.15,0.26,0.16,0.92,-4.19
2.486,1.40,-3.15,0.26,0.09,1.04,-4.29
2.489,1.40,-3.15,0.26,0.01,1.14,-4.38
2.489,1.23,-2.66,-0.22,0.01,1.14,-4.38
2.49,1.23,-2.66,-0.22,-0.05,1.24,-4.46
2.493,1.23,-2.66,-0.22,-0.12,1.32,-4.52
2.493,1.23,-2.12,-0.79,-0.12,1.32,-4.52
2.494,1.23,-2.12,-0.79,-0.18,1.39,-4.58
2.497,1.23,-2.12,-0.79,-0.24,1.45,-4.63
2.497,1.20,-1.63,-1.09,-0.24,1.45,-4.63
2.498,1.20,-1.63,-1.09,-0.29,1.50,-4.68
2.5,1.20,-1.63,-1.09,-0.35,1.53,-4.71
2.501,1.29,-1.10,-1.30,-0.35,1.53,-4.71
2.502,1.29,-1.10,-1.30,-0.40,1.56,-4.73
2.504,1.29,-1.10,-1.30,-0.44,1.58,-4.74
2.505,1.12,-0.53,-1.67,-0.44,1.58,-4.74
2.506,1.12,-0.53,-1.67,-0.47,1.61,-4.74
2.515,1.12,-0.53,-1.67,-0.49,1.65,-4.73
2.516,0.72,-0.10,-1.78,-0.49,1.65,-4.73
2.516,0.72,-0.10,-1.78,-0.48,1.71,-4.71
2.516,0.72,-0.10,-1.78,-0.45,1.77,-4.68
2.517,0.30,0.50,-1.25,-0.45,1.77,-4.68
2.517,0.30,0.50,-1.25,-0.41,1.86,-4.65
2.517,0.30,0.50,-1.25,-0.37,1.98,-4.61
2.52,0.15,1.17,-0.43,-0.37,1.98,-4.61
2.521,0.15,1.17,-0.43,-0.32,2.09,-4.55
2.521,0.15,1.17,-0.43,-0.24,2.17,-4.48
2.522,-0.13,1.79,-0.16,-0.24,2.17,-4.48
2.522,-0.13,1.79,-0.16,-0.15,2.21,-4.40
2.533,-0.13,1.79,-0.16,-0.07,2.25,-4.30
2.533,-1.01,1.98,0.68,-0.07,2.25,-4.30
2.534,-1.01,1.98,0.68,0.00,2.26,-4.19
2.534,-1.01,1.98,0.68,0.07,2.24,-4.07
2.534,-2.28,1.38,0.87,0.07,2.24,-4.07
2.534,-2.28,1.38,0.87,0.12,2.20,-3.94
2.534,-2.28,1.38,0.87,0.17,2.14,-3.80
2.535,-3.38,0.27,0.24,0.17,2.14,-3.80
2.535,-3.38,0.27,0.24,0.21,2.05,-3.65
2.536,-3.38,0.27,0.24,0.24,1.94,-3.50
2.537,-4.24,-1.11,-0.11,0.24,1.94,-3.50
2.538,-4.24,-1.11,-0.11,0.27,1.82,-3.33
2.54,-4.24,-1.11,-0.11,0.29,1.66,-3.16
2.54,-4.86,-2.67,-0.24,0.29,1.66,-3.16
2.545,-4.86,-2.67,-0.24,0.31,1.49,-2.98
2.545,-4.86,-2.67,-0.24,0.31,1.31,-2.81
2.546,-5.38,-4.31,-0.34,0.31,1.31,-2.81
2.546,-5.38,-4.31,-0.34,0.31,1.11,-2.63
2.548,-5.38,-4.31,-0.34,0.30,0.90,-2.45
2.549,-5.36,-5.57,-0.69,0.30,0.90,-2.45
2.55,-5.36,-5.57,-0.69,0.28,0.68,-2.28
2.553,-5.36,-5.57,-0.69,0.26,0.45,-2.09
2.553,-5.36,-6.74,-1.02,0.26,0.45,-2.09
2.554,-5.36,-6.74,-1.02,0.22,0.22,-1.91
2.556,-5.36,-6.74,-1.02,0.17,-0.02,-1.73
2.557,-5.41,-7.85,-1.41,0.17,-0.02,-1.73
2.558,-5.41,-7.85,-1.41,0.12,-0.25,-1.55
2.56,-5.41,-7.85,-1.41,0.06,-0.47,-1.37
2.56,-5.37,-8.94,-1.89,0.06,-0.47,-1.37
2.562,-5.37,-8.94,-1.89,-0.01,-0.69,-1.19
2.565,-5.37,-8.94,-1.89,-0.09,-0.90,-1.01
2.565,-5.25,-9.83,-2.31,-0.09,-0.90,-1.01
2.566,-5.25,-9.83,-2.31,-0.16,-1.10,-0.84
2.568,-5.25,-9.83,-2.31,-0.24,-1.28,-0.67
2.568,-4.98,-10.54,-2.67,-0.24,-1.28,-0.67
2.57,-4.98,-10.54,-2.67,-0.32,-1.46,-0.52
2.572,-4.98,-10.54,-2.67,-0.40,-1.61,-0.36
2.573,-4.48,-11.13,-2.89,-0.40,-1.61,-0.36
2.574,-4.48,-11.13,-2.89,-0.47,-1.75,-0.21
2.576,-4.48,-11.13,-2.89,-0.55,-1.86,-0.07
2.577,-3.93,-11.56,-3.03,-0.55,-1.86,-0.07
2.578,-3.93,-11.56,-3.03,-0.62,-1.96,0.06
2.581,-3.93,-11.56,-3.03,-0.69,-2.04,0.18
2.581,-3.18,-11.71,-3.04,-0.69,-2.04,0.18
2.582,-3.18,-11.71,-3.04,-0.75,-2.09,0.29
2.584,-3.18,-11.71,-3.04,-0.81,-2.11,0.39
2.584,-2.31,-11.63,-2.85,-0.81,-2.11,0.39
2.586,-2.31,-11.63,-2.85,-0.86,-2.11,0.48
2.588,-2.31,-11.63,-2.85,-0.90,-2.09,0.56
2.588,-1.24,-11.13,-2.51,-0.90,-2.09,0.56
2.59,-1.24,-11.13,-2.51,-0.94,-2.05,0.62
2.598,-1.24,-11.13,-2.51,-0.98,-1.98,0.65
2.599,0.02,-10.12,-2.16,-0.98,-1.98,0.65
2.599,0.02,-10.12,-2.16,-1.00,-1.88,0.68
2.6,0.02,-10.12,-2.16,-1.02,-1.78,0.69
2.6,1.40,-8.54,-1.69,-1.02,-1.78,0.69
2.6,1.40,-8.54,-1.69,-1.03,-1.65,0.68
2.601,1.40,-8.54,-1.69,-1.03,-1.52,0.67
2.601,2.60,-6.52,-1.03,-1.03,-1.52,0.67
2.602,2.60,-6.52,-1.03,-1.01,-1.38,0.64
2.604,2.60,-6.52,-1.03,-0.99,-1.24,0.60
2.605,3.39,-4.64,-0.24,-0.99,-1.24,0.60
2.606,3.39,-4.64,-0.24,-0.97,-1.11,0.55
2.62,3.39,-4.64,-0.24,-0.96,-1.01,0.47
2.621,4.06,-3.04,0.44,-0.96,-1.01,0.47
2.621,4.06,-3.04,0.44,-0.94,-0.93,0.39
2.621,4.06,-3.04,0.44,-0.92,-0.86,0.29
2.622,4.92,-1.77,0.63,-0.92,-0.86,0.29
2.622,4.92,-1.77,0.63,-0.90,-0.80,0.20
2.622,4.92,-1.77,0.63,-0.87,-0.73,0.11
2.623,5.26,-0.50,0.98,-0.87,-0.73,0.11
2.623,5.26,-0.50,0.98,-0.83,-0.67,0.02
2.623,5.26,-0.50,0.98,-0.78,-0.61,-0.07
2.624,5.11,0.70,1.56,-0.78,-0.61,-0.07
2.624,5.11,0.70,1.56,-0.74,-0.56,-0.15
2.624,5.11,0.70,1.56,-0.69,-0.51,-0.22
2.625,4.85,1.63,2.07,-0.69,-0.51,-0.22
2.628,4.85,1.63,2.07,-0.63,-0.46,-0.29
2.629,4.85,1.63,2.07,-0.57,-0.43,-0.34
2.629,4.42,2.20,2.44,-0.57,-0.43,-0.34
2.63,4.42,2.20,2.44,-0.51,-0.41,-0.38
2.633,4.42,2.20,2.44,-0.45,-0.39,-0.41
2.633,3.74,2.48,2.67,-0.45,-0.39,-0.41
2.634,3.74,2.48,2.67,-0.39,-0.39,-0.42
2.636,3.74,2.48,2.67,-0.34,-0.40,-0.43
2.637,2.77,2.40,2.76,-0.34,-0.40,-0.43
2.638,2.77,2.40,2.76,-0.28,-0.42,-0.42
2.64,2.77,2.40,2.76,-0.22,-0.44,-0.41
2.64,1.82,2.10,2.65,-0.22,-0.44,-0.41
2.642,1.82,2.10,2.65,-0.17,-0.46,-0.39
2.644,1.82,2.10,2.65,-0.12,-0.49,-0.36
2.644,1.11,1.74,2.47,-0.12,-0.49,-0.36
2.646,1.11,1.74,2.47,-0.06,-0.51,-0.33
2.648,1.11,1.74,2.47,-0.01,-0.52,-0.30
2.649,0.59,1.37,2.22,-0.01,-0.52,-0.30
2.651,0.59,1.37,2.22,0.03,-0.53,-0.27
2.652,0.59,1.37,2.22,0.07,-0.53,-0.24
2.652,0.22,1.00,1.96,0.07,-0.53,-0.24
2.654,0.22,1.00,1.96,0.11,-0.52,-0.21
2.656,0.22,1.00,1.96,0.15,-0.50,-0.18
2.656,-0.04,0.64,1.63,0.15,-0.50,-0.18
2.658,-0.04,0.64,1.63,0.18,-0.47,-0.16
2.66,-0.04,0.64,1.63,0.21,-0.44,-0.14
2.66,-0.22,0.33,1.30,0.21,-0.44,-0.14
2.662,-0.22,0.33,1.30,0.24,-0.40,-0.12
2.664,-0.22,0.33,1.30,0.26,-0.35,-0.10
2.665,-0.34,0.08,0.95,0.26,-0.35,-0.10
2.666,-0.34,0.08,0.95,0.28,-0.30,-0.09
2.668,-0.34,0.08,0.95,0.30,-0.23,-0.08
2.668,-0.41,-0.10,0.62,0.30,-0.23,-0.08
2.669,-0.41,-0.10,0.62,0.31,-0.16,-0.07
2.672,-0.41,-0.10,0.62,0.32,-0.09,-0.07
2.672,-0.48,-0.22,0.25,0.32,-0.09,-0.07
2.673,-0.48,-0.22,0.25,0.33,-0.01,-0.06
2.676,-0.48,-0.22,0.25,0.33,0.07,-0.06
2.676,-0.53,-0.33,-0.08,0.33,0.07,-0.06
2.677,-0.53,-0.33,-0.08,0.34,0.15,-0.05
2.68,-0.53,-0.33,-0.08,0.34,0.22,-0.05
2.68,-0.62,-0.39,-0.38,0.34,0.22,-0.05
2.682,-0.62,-0.39,-0.38,0.34,0.29,-0.04
2.684,-0.62,-0.39,-0.38,0.33,0.36,-0.04
2.684,-0.68,-0.42,-0.69,0.33,0.36,-0.04
2.685,-0.68,-0.42,-0.69,0.33,0.42,-0.03
2.688,-0.68,-0.42,-0.69,0.32,0.48,-0.02
2.688,-0.75,-0.48,-0.92,0.32,0.48,-0.02
2.689,-0.75,-0.48,-0.92,0.32,0.54,-0.01
2.698,-0.75,-0.48,-0.92,0.32,0.60,0.00
2.699,-0.75,-0.51,-1.03,0.32,0.60,0.00
2.699,-0.75,-0.51,-1.03,0.31,0.65,0.01
2.7,-0.75,-0.51,-1.03,0.31,0.70,0.01
2.7,-0.67,-0.53,-1.02,0.31,0.70,0.01
2.701,-0.67,-0.53,-1.02,0.31,0.75,0.02
2.701,-0.67,-0.53,-1.02,0.30,0.79,0.02
2.701,-0.50,-0.50,-0.97,0.30,0.79,0.02
2.701,-0.50,-0.50,-0.97,0.30,0.83,0.02
2.704,-0.50,-0.50,-0.97,0.30,0.86,0.02
2.705,-0.29,-0.48,-0.88,0.30,0.86,0.02
2.705,-0.29,-0.48,-0.88,0.30,0.88,0.02
2.719,-0.29,-0.48,-0.88,0.30,0.90,0.01
2.72,-0.07,-0.47,-0.76,0.30,0.90,0.01
2.72,-0.07,-0.47,-0.76,0.29,0.91,0.00
2.721,-0.07,-0.47,-0.76,0.29,0.92,-0.00
2.721,0.09,-0.45,-0.64,0.29,0.92,-0.00
2.721,0.09,-0.45,-0.64,0.29,0.92,-0.01
2.722,0.09,-0.45,-0.64,0.28,0.91,-0.02
2.722,0.22,-0.43,-0.53,0.28,0.91,-0.02
2.722,0.22,-0.43,-0.53,0.28,0.91,-0.02
2.723,0.22,-0.43,-0.53,0.28,0.90,-0.03
2.723,0.29,-0.39,-0.43,0.28,0.90,-0.03
2.723,0.29,-0.39,-0.43,0.27,0.88,-0.04
2.724,0.29,-0.39,-0.43,0.27,0.86,-0.05
2.724,0.33,-0.33,-0.33,0.27,0.86,-0.05
2.727,0.33,-0.33,-0.33,0.27,0.84,-0.07
2.728,0.33,-0.33,-0.33,0.26,0.81,-0.09
2.728,0.37,-0.26,-0.23,0.26,0.81,-0.09
2.729,0.37,-0.26,-0.23,0.26,0.79,-0.11
2.732,0.37,-0.26,-0.23,0.25,0.75,-0.15
2.733,0.49,-0.19,-0.19,0.25,0.75,-0.15
2.733,0.49,-0.19,-0.19,0.25,0.72,-0.18
2.736,0.49,-0.19,-0.19,0.25,0.68,-0.22
2.736,0.62,-0.21,-0.17,0.25,0.68,-0.22
2.737,0.62,-0.21,-0.17,0.25,0.64,-0.27
2.74,0.62,-0.21,-0.17,0.25,0.61,-0.32
2.74,0.72,-0.28,-0.15,0.25,0.61,-0.32
2.742,0.72,-0.28,-0.15,0.25,0.57,-0.38
2.744,0.72,-0.28,-0.15,0.25,0.53,-0.43
2.744,0.79,-0.37,-0.11,0.25,0.53,-0.43
2.746,0.79,-0.37,-0.11,0.25,0.49,-0.50
2.748,0.79,-0.37,-0.11,0.25,0.45,-0.56
2.749,0.81,-0.47,-0.11,0.25,0.45,-0.56
2.75,0.81,-0.47,-0.11,0.25,0.41,-0.62
2.752,0.81,-0.47,-0.11,0.26,0.37,-0.69
2.752,0.80,-0.51,-0.10,0.26,0.37,-0.69
2.753,0.80,-0.51,-0.10,0.27,0.34,-0.76
2.756,0.80,-0.51,-0.10,0.27,0.30,-0.82
2.756,0.77,-0.54,-0.06,0.27,0.30,-0.82
2.757,0.77,-0.54,-0.06,0.27,0.27,-0.89
2.76,0.77,-0.54,-0.06,0.27,0.23,-0.96
2.76,0.64,-0.52,-0.04,0.27,0.23,-0.96
2.761,0.64,-0.52,-0.04,0.28,0.20,-1.03
2.764,0.64,-0.52,-0.04,0.28,0.17,-1.10
2.764,0.49,-0.49,-0.05,0.28,0.17,-1.10
2.765,0.49,-0.49,-0.05,0.29,0.14,-1.16
2.767,0.49,-0.49,-0.05,0.29,0.11,-1.23
2.768,0.30,-0.41,-0.02,0.29,0.11,-1.23
2.769,0.30,-0.41,-0.02,0.30,0.09,-1.29
2.772,0.30,-0.41,-0.02,0.30,0.06,-1.34
2.772,0.02,-0.25,0.03,0.30,0.06,-1.34
2.773,0.02,-0.25,0.03,0.30,0.04,-1.40
2.775,0.02,-0.25,0.03,0.31,0.03,-1.45
2.776,-0.33,-0.10,0.06,0.31,0.03,-1.45
2.777,-0.33,-0.10,0.06,0.31,0.01,-1.49
2.78,-0.33,-0.10,0.06,0.32,-0.00,-1.54
2.78,-0.65,0.09,0.13,0.32,-0.00,-1.54
2.781,-0.65,0.09,0.13,0.32,-0.01,-1.58
2.783,-0.65,0.09,0.13,0.33,-0.02,-1.62
2.784,-0.97,0.29,0.19,0.33,-0.02,-1.62
2.785,-0.97,0.29,0.19,0.34,-0.01,-1.64
2.787,-0.97,0.29,0.19,0.35,-0.00,-1.66
2.787,-1.38,0.51,0.24,0.35,-0.00,-1.66
2.789,-1.38,0.51,0.24,0.35,0.00,-1.68
2.795,-1.38,0.51,0.24,0.36,0.02,-1.69
2.795,-1.81,0.70,0.23,0.36,0.02,-1.69
2.795,-1.81,0.70,0.23,0.36,0.04,-1.69
2.795,-1.81,0.70,0.23,0.36,0.07,-1.70
2.796,-2.13,0.85,0.24,0.36,0.07,-1.70
2.797,-2.13,0.85,0.24,0.37,0.10,-1.71
2.8,-2.13,0.85,0.24,0.36,0.12,-1.70
2.8,-1.99,1.16,0.24,0.36,0.12,-1.70
2.801,-1.99,1.16,0.24,0.36,0.15,-1.70
2.803,-1.99,1.16,0.24,0.36,0.17,-1.70
2.804,-2.25,1.32,0.17,0.36,0.17,-1.70
2.805,-2.25,1.32,0.17,0.35,0.20,-1.69
2.807,-2.25,1.32,0.17,0.34,0.23,-1.68
2.808,-2.22,1.33,0.02,0.34,0.23,-1.68
2.811,-2.22,1.33,0.02,0.34,0.28,-1.67
2.812,-2.22,1.33,0.02,0.33,0.32,-1.67
2.812,-2.19,1.40,0.01,0.33,0.32,-1.67
2.813,-2.19,1.40,0.01,0.34,0.37,-1.66
2.815,-2.19,1.40,0.01,0.33,0.42,-1.66
2.816,-2.13,1.44,0.05,0.33,0.42,-1.66
2.817,-2.13,1.44,0.05,0.33,0.48,-1.65
2.819,-2.13,1.44,0.05,0.33,0.53,-1.64
2.82,-2.06,1.48,0.06,0.33,0.53,-1.64
2.821,-2.06,1.48,0.06,0.32,0.57,-1.63
2.823,-2.06,1.48,0.06,0.32,0.62,-1.63
2.824,-1.92,1.46,0.03,0.32,0.62,-1.63
2.825,-1.92,1.46,0.03,0.32,0.66,-1.62
2.827,-1.92,1.46,0.03,0.32,0.70,-1.60
2.828,-1.76,1.44,-0.04,0.32,0.70,-1.60
2.829,-1.76,1.44,-0.04,0.31,0.74,-1.59
2.832,-1.76,1.44,-0.04,0.31,0.77,-1.57
2.832,-1.78,1.45,-0.09,0.31,0.77,-1.57
2.833,-1.78,1.45,-0.09,0.31,0.80,-1.54
2.835,-1.78,1.45,-0.09,0.30,0.83,-1.52
2.836,-1.85,1.56,-0.12,0.30,0.83,-1.52
2.837,-1.85,1.56,-0.12,0.30,0.85,-1.49
2.839,-1.85,1.56,-0.12,0.29,0.86,-1.45
2.84,-1.95,1.77,-0.19,0.29,0.86,-1.45
2.842,-1.95,1.77,-0.19,0.28,0.86,-1.42
2.843,-1.95,1.77,-0.19,0.27,0.85,-1.38
2.844,-1.98,1.82,-0.25,0.27,0.85,-1.38
2.845,-1.98,1.82,-0.25,0.26,0.83,-1.33
2.848,-1.98,1.82,-0.25,0.24,0.80,-1.28
2.848,-1.96,1.74,-0.39,0.24,0.80,-1.28
2.849,-1.96,1.74,-0.39,0.22,0.75,-1.23
2.852,-1.96,1.74,-0.39,0.19,0.69,-1.18
2.852,-1.81,1.52,-0.59,0.19,0.69,-1.18
2.853,-1.81,1.52,-0.59,0.17,0.62,-1.12
2.855,-1.81,1.52,-0.59,0.13,0.54,-1.07
2.855,-1.56,1.27,-0.84,0.13,0.54,-1.07
2.857,-1.56,1.27,-0.84,0.10,0.44,-1.01
2.859,-1.56,1.27,-0.84,0.06,0.33,-0.95
2.86,-1.37,0.93,-1.14,0.06,0.33,-0.95
2.861,-1.37,0.93,-1.14,0.02,0.22,-0.90
2.863,-1.37,0.93,-1.14,-0.02,0.11,-0.85
2.864,-0.99,0.71,-1.37,-0.02,0.11,-0.85
2.865,-0.99,0.71,-1.37,-0.05,-0.02,-0.81
2.867,-0.99,0.71,-1.37,-0.09,-0.15,-0.76
2.867,-0.56,0.50,-1.56,-0.09,-0.15,-0.76
2.869,-0.56,0.50,-1.56,-0.13,-0.29,-0.71
2.871,-0.56,0.50,-1.56,-0.17,-0.42,-0.67
2.872,-0.23,0.17,-1.79,-0.17,-0.42,-0.67
2.873,-0.23,0.17,-1.79,-0.20,-0.55,-0.63
2.875,-0.23,0.17,-1.79,-0.23,-0.68,-0.60
2.876,0.17,-0.17,-1.96,-0.23,-0.68,-0.60
2.877,0.17,-0.17,-1.96,-0.27,-0.80,-0.57
2.879,0.17,-0.17,-1.96,-0.30,-0.93,-0.54
2.88,0.62,-0.39,-2.08,-0.30,-0.93,-0.54
2.881,0.62,-0.39,-2.08,-0.33,-1.05,-0.52
2.883,0.62,-0.39,-2.08,-0.36,-1.16,-0.50
2.883,1.14,-0.55,-2.16,-0.36,-1.16,-0.50
2.885,1.14,-0.55,-2.16,-0.40,-1.27,-0.49
2.887,1.14,-0.55,-2.16,-0.43,-1.38,-0.47
2.887,1.59,-1.10,-2.35,-0.43,-1.38,-0.47
2.889,1.59,-1.10,-2.35,-0.47,-1.48,-0.46
2.898,1.59,-1.10,-2.35,-0.51,-1.59,-0.45
2.899,2.05,-1.58,-2.53,-0.51,-1.59,-0.45
2.899,2.05,-1.58,-2.53,-0.55,-1.68,-0.44
2.9,2.05,-1.58,-2.53,-0.59,-1.77,-0.44
2.9,2.50,-1.98,-2.69,-0.59,-1.77,-0.44
2.9,2.50,-1.98,-2.69,-0.63,-1.86,-0.44
2.901,2.50,-1.98,-2.69,-0.67,-1.94,-0.44
2.901,2.95,-2.11,-2.78,-0.67,-1.94,-0.44
2.901,2.95,-2.11,-2.78,-0.71,-2.03,-0.44
2.903,2.95,-2.11,-2.78,-0.75,-2.12,-0.42
2.904,3.24,-2.31,-2.80,-0.75,-2.12,-0.42
2.905,3.24,-2.31,-2.80,-0.79,-2.19,-0.42
2.907,3.24,-2.31,-2.80,-0.83,-2.27,-0.40
2.908,3.19,-2.51,-2.80,-0.83,-2.27,-0.40
2.919,3.19,-2.51,-2.80,-0.87,-2.33,-0.39
2.92,3.19,-2.51,-2.80,-0.91,-2.39,-0.37
2.921,3.32,-2.57,-2.76,-0.91,-2.39,-0.37
2.921,3.32,-2.57,-2.76,-0.95,-2.44,-0.35
2.921,3.32,-2.57,-2.76,-0.98,-2.49,-0.33
2.924,3.25,-2.45,-2.54,-0.98,-2.49,-0.33
2.925,3.25,-2.45,-2.54,-1.01,-2.53,-0.30
2.925,3.25,-2.45,-2.54,-1.03,-2.55,-0.28
2.925,3.06,-2.15,-2.17,-1.03,-2.55,-0.28
2.925,3.06,-2.15,-2.17,-1.05,-2.57,-0.26
2.926,3.06,-2.15,-2.17,-1.06,-2.57,-0.24
2.926,2.86,-1.75,-1.64,-1.06,-2.57,-0.24
2.926,2.86,-1.75,-1.64,-1.06,-2.56,-0.22
2.927,2.86,-1.75,-1.64,-1.06,-2.54,-0.20
2.928,2.67,-1.21,-1.01,-1.06,-2.54,-0.20
2.929,2.67,-1.21,-1.01,-1.05,-2.51,-0.18
2.931,2.67,-1.21,-1.01,-1.04,-2.47,-0.17
2.932,2.47,-0.65,-0.31,-1.04,-2.47,-0.17
2.933,2.47,-0.65,-0.31,-1.02,-2.43,-0.16
2.935,2.47,-0.65,-0.31,-1.00,-2.37,-0.15
2.935,2.17,-0.24,0.41,-1.00,-2.37,-0.15
2.937,2.17,-0.24,0.41,-0.97,-2.30,-0.14
2.939,2.17,-0.24,0.41,-0.94,-2.23,-0.14
2.939,1.93,-0.04,1.11,-0.94,-2.23,-0.14
2.941,1.93,-0.04,1.11,-0.91,-2.14,-0.15
2.943,1.93,-0.04,1.11,-0.87,-2.05,-0.15
2.943,1.77,-0.11,1.83,-0.87,-2.05,-0.15
2.945,1.77,-0.11,1.83,-0.82,-1.96,-0.17
2.947,1.77,-0.11,1.83,-0.78,-1.86,-0.18
2.948,1.66,-0.34,2.53,-0.78,-1.86,-0.18
2.949,1.66,-0.34,2.53,-0.73,-1.76,-0.19
2.951,1.66,-0.34,2.53,-0.68,-1.66,-0.20
2.951,1.56,-0.66,3.11,-0.68,-1.66,-0.20
2.953,1.56,-0.66,3.11,-0.63,-1.56,-0.22
2.955,1.56,-0.66,3.11,-0.58,-1.46,-0.23
2.955,1.46,-0.94,3.55,-0.58,-1.46,-0.23
2.957,1.46,-0.94,3.55,-0.53,-1.36,-0.23
2.959,1.46,-0.94,3.55,-0.47,-1.26,-0.24
2.959,1.38,-1.15,3.79,-0.47,-1.26,-0.24
2.961,1.38,-1.15,3.79,-0.42,-1.15,-0.24
2.963,1.38,-1.15,3.79,-0.37,-1.04,-0.24
2.963,1.22,-1.32,4.00,-0.37,-1.04,-0.24
2.965,1.22,-1.32,4.00,-0.32,-0.93,-0.24
2.967,1.22,-1.32,4.00,-0.27,-0.82,-0.24
2.967,1.08,-1.37,4.04,-0.27,-0.82,-0.24
2.968,1.08,-1.37,4.04,-0.23,-0.72,-0.24
2.971,1.08,-1.37,4.04,-0.18,-0.61,-0.23
2.971,0.92,-1.32,3.95,-0.18,-0.61,-0.23
2.972,0.92,-1.32,3.95,-0.13,-0.52,-0.23
2.975,0.92,-1.32,3.95,-0.09,-0.41,-0.22
2.976,0.79,-1.20,3.77,-0.09,-0.41,-0.22
2.977,0.79,-1.20,3.77,-0.04,-0.32,-0.21
2.979,0.79,-1.20,3.77,0.00,-0.23,-0.19
2.979,0.63,-1.10,3.55,0.00,-0.23,-0.19
2.981,0.63,-1.10,3.55,0.05,-0.14,-0.18
2.983,0.63,-1.10,3.55,0.09,-0.05,-0.16
2.983,0.53,-1.00,3.33,0.09,-0.05,-0.16
2.984,0.53,-1.00,3.33,0.13,0.03,-0.15
2.987,0.53,-1.00,3.33,0.17,0.11,-0.13
2.987,0.51,-0.88,3.05,0.17,0.11,-0.13
2.989,0.51,-0.88,3.05,0.21,0.19,-0.11
2.992,0.51,-0.88,3.05,0.25,0.26,-0.09
2.992,0.50,-0.70,2.72,0.25,0.26,-0.09
2.993,0.50,-0.70,2.72,0.29,0.33,-0.07
2.995,0.50,-0.70,2.72,0.32,0.39,-0.05
2.995,0.43,-0.50,2.38,0.32,0.39,-0.05
2.997,0.43,-0.50,2.38,0.36,0.45,-0.01
2.999,0.43,-0.50,2.38,0.40,0.52,0.05
2.999,0.28,-0.25,2.03,0.40,0.52,0.05
3.0,0.28,-0.25,2.03,0.44,0.58,0.12
3.003,0.28,-0.25,2.03,0.48,0.64,0.17
3.003,-0.86,0.88,1.81,0.48,0.64,0.17
3.004,-0.86,0.88,1.81,0.52,0.69,0.23
3.007,-0.86,0.88,1.81,0.56,0.73,0.28
3.007,-1.07,1.36,1.64,0.56,0.73,0.28
3.008,-1.07,1.36,1.64,0.59,0.76,0.33
3.011,-1.07,1.36,1.64,0.62,0.79,0.37
3.011,-0.91,1.42,1.27,0.62,0.79,0.37
3.013,-0.91,1.42,1.27,0.65,0.80,0.40
3.015,-0.91,1.42,1.27,0.67,0.81,0.42
3.015,-0.60,1.28,0.87,0.67,0.81,0.42
3.016,-0.60,1.28,0.87,0.69,0.82,0.44
3.019,-0.60,1.28,0.87,0.71,0.83,0.46
3.019,-0.29,1.12,0.47,0.71,0.83,0.46
3.02,-0.29,1.12,0.47,0.72,0.82,0.47
3.023,-0.29,1.12,0.47,0.74,0.83,0.47
3.023,-0.11,1.02,0.14,0.74,0.83,0.47
3.032,-0.11,1.02,0.14,0.76,0.83,0.47
3.032,-0.11,1.02,0.14,0.77,0.83,0.47
3.033,-0.04,0.93,-0.07,0.77,0.83,0.47
3.033,-0.04,0.93,-0.07,0.79,0.83,0.47
3.033,-0.04,0.93,-0.07,0.81,0.83,0.46
3.034,-0.01,0.80,-0.18,0.81,0.83,0.46
3.034,-0.01,0.80,-0.18,0.82,0.84,0.45
3.035,-0.01,0.80,-0.18,0.83,0.84,0.44
3.035,-0.09,0.60,-0.34,0.83,0.84,0.44
3.036,-0.09,0.60,-0.34,0.84,0.84,0.43
3.039,-0.09,0.60,-0.34,0.84,0.83,0.42
3.039,-0.28,0.39,-0.57,0.84,0.83,0.42
3.04,-0.28,0.39,-0.57,0.84,0.83,0.41
3.052,-0.28,0.39,-0.57,0.84,0.83,0.40
3.053,-0.48,0.21,-0.80,0.84,0.83,0.40
3.053,-0.48,0.21,-0.80,0.83,0.82,0.39
3.053,-0.48,0.21,-0.80,0.82,0.82,0.38
3.054,-0.67,0.09,-1.00,0.82,0.82,0.38
3.057,-0.67,0.09,-1.00,0.81,0.82,0.37
3.057,-0.67,0.09,-1.00,0.79,0.81,0.36
3.058,-0.92,-0.04,-1.19,0.79,0.81,0.36
3.058,-0.92,-0.04,-1.19,0.77,0.80,0.35
3.058,-0.92,-0.04,-1.19,0.75,0.79,0.35
3.059,-1.14,-0.11,-1.37,0.75,0.79,0.35
3.059,-1.14,-0.11,-1.37,0.72,0.77,0.34
3.059,-1.14,-0.11,-1.37,0.70,0.76,0.33
3.06,-1.37,-0.16,-1.53,0.70,0.76,0.33
3.062,-1.37,-0.16,-1.53,0.66,0.74,0.33
3.063,-1.37,-0.16,-1.53,0.63,0.72,0.32
3.064,-1.57,-0.21,-1.69,0.63,0.72,0.32
3.065,-1.57,-0.21,-1.69,0.59,0.70,0.32
3.067,-1.57,-0.21,-1.69,0.55,0.69,0.32
3.067,-1.73,-0.23,-1.85,0.55,0.69,0.32
3.068,-1.73,-0.23,-1.85,0.51,0.66,0.31
3.071,-1.73,-0.23,-1.85,0.47,0.64,0.31
3.071,-1.91,-0.24,-1.99,0.47,0.64,0.31
3.072,-1.91,-0.24,-1.99,0.42,0.62,0.30
3.075,-1.91,-0.24,-1.99,0.37,0.59,0.30
3.076,-2.02,-0.21,-2.18,0.37,0.59,0.30
3.076,-2.02,-0.21,-2.18,0.32,0.56,0.29
3.078,-2.02,-0.21,-2.18,0.27,0.53,0.28
3.079,-2.01,-0.22,-2.32,0.27,0.53,0.28
3.08,-2.01,-0.22,-2.32,0.22,0.51,0.27
3.083,-2.01,-0.22,-2.32,0.17,0.47,0.25
3.083,-1.96,-0.18,-2.43,0.17,0.47,0.25
3.084,-1.96,-0.18,-2.43,0.13,0.45,0.24
3.086,-1.96,-0.18,-2.43,0.08,0.42,0.22
3.087,-1.89,-0.18,-2.48,0.08,0.42,0.22
3.088,-1.89,-0.18,-2.48,0.03,0.39,0.21
3.091,-1.89,-0.18,-2.48,-0.02,0.35,0.19
3.091,-1.73,-0.09,-2.48,-0.02,0.35,0.19
3.092,-1.73,-0.09,-2.48,-0.06,0.31,0.18
3.094,-1.73,-0.09,-2.48,-0.11,0.28,0.16
3.095,-1.79,0.00,-2.37,-0.11,0.28,0.16
3.096,-1.79,0.00,-2.37,-0.14,0.24,0.15
3.098,-1.79,0.00,-2.37,-0.18,0.19,0.14
3.099,-1.91,0.09,-2.19,-0.18,0.19,0.14
3.1,-1.91,0.09,-2.19,-0.21,0.14,0.12
3.102,-1.91,0.09,-2.19,-0.24,0.09,0.11
3.103,-1.86,0.17,-2.02,-0.24,0.09,0.11
3.104,-1.86,0.17,-2.02,-0.27,0.04,0.09
3.106,-1.86,0.17,-2.02,-0.30,-0.01,0.06
3.107,-1.74,0.23,-1.76,-0.30,-0.01,0.06
3.109,-1.74,0.23,-1.76,-0.31,-0.05,0.05
3.11,-1.74,0.23,-1.76,-0.33,-0.10,0.03
3.111,-1.60,0.31,-1.47,-0.33,-0.10,0.03
3.112,-1.60,0.31,-1.47,-0.35,-0.15,0.03
3.114,-1.60,0.31,-1.47,-0.35,-0.19,0.03
3.115,-1.47,0.28,-1.23,-0.35,-0.19,0.03
3.116,-1.47,0.28,-1.23,-0.36,-0.23,0.04
3.118,-1.47,0.28,-1.23,-0.38,-0.27,0.05
3.119,-1.48,0.19,-1.02,-0.38,-0.27,0.05
3.12,-1.48,0.19,-1.02,-0.38,-0.30,0.07
3.122,-1.48,0.19,-1.02,-0.39,-0.33,0.09
3.123,-1.42,0.14,-0.85,-0.39,-0.33,0.09
3.124,-1.42,0.14,-0.85,-0.40,-0.36,0.11
3.126,-1.42,0.14,-0.85,-0.40,-0.38,0.13
3.127,-1.22,0.11,-0.69,-0.40,-0.38,0.13
3.128,-1.22,0.11,-0.69,-0.40,-0.40,0.14
3.131,-1.22,0.11,-0.69,-0.40,-0.42,0.16
3.131,-0.90,0.09,-0.52,-0.40,-0.42,0.16
3.132,-0.90,0.09,-0.52,-0.40,-0.42,0.17
3.134,-0.90,0.09,-0.52,-0.40,-0.43,0.17
3.135,-0.52,0.09,-0.35,-0.40,-0.43,0.17
3.136,-0.52,0.09,-0.35,-0.40,-0.43,0.18
3.138,-0.52,0.09,-0.35,-0.40,-0.43,0.18
3.139,-0.14,0.06,-0.22,-0.40,-0.43,0.18
3.14,-0.14,0.06,-0.22,-0.39,-0.42,0.18
3.148,-0.14,0.06,-0.22,-0.38,-0.41,0.17
3.149,0.25,0.06,-0.11,-0.38,-0.41,0.17
3.149,0.25,0.06,-0.11,-0.37,-0.40,0.17
3.15,0.25,0.06,-0.11,-0.36,-0.39,0.16
3.15,0.54,0.05,-0.01,-0.36,-0.39,0.16
3.15,0.54,0.05,-0.01,-0.35,-0.37,0.15
3.151,0.54,0.05,-0.01,-0.34,-0.36,0.14
3.151,0.79,0.01,0.08,-0.34,-0.36,0.14
3.152,0.79,0.01,0.08,-0.32,-0.34,0.13
3.154,0.79,0.01,0.08,-0.31,-0.32,0.12
3.155,0.97,-0.01,0.17,-0.31,-0.32,0.12
3.156,0.97,-0.01,0.17,-0.29,-0.31,0.11
3.169,0.97,-0.01,0.17,-0.27,-0.28,0.10
3.17,1.09,-0.05,0.24,-0.27,-0.28,0.10
3.17,1.09,-0.05,0.24,-0.26,-0.26,0.09
3.171,1.09,-0.05,0.24,-0.24,-0.25,0.08
3.171,1.15,-0.08,0.32,-0.24,-0.25,0.08
3.171,1.15,-0.08,0.32,-0.22,-0.22,0.07
3.172,1.15,-0.08,0.32,-0.20,-0.20,0.06
3.172,1.18,-0.09,0.37,-0.20,-0.20,0.06
3.172,1.18,-0.09,0.37,-0.18,-0.18,0.05
3.173,1.18,-0.09,0.37,-0.16,-0.16,0.04
3.173,1.17,-0.12,0.41,-0.16,-0.16,0.04
3.173,1.17,-0.12,0.41,-0.15,-0.14,0.03
3.178,1.17,-0.12,0.41,-0.13,-0.13,0.02
3.178,1.15,-0.12,0.43,-0.13,-0.13,0.02
3.179,1.15,-0.12,0.43,-0.12,-0.11,0.02
3.179,1.15,-0.12,0.43,-0.10,-0.09,0.01
3.179,1.10,-0.15,0.45,-0.10,-0.09,0.01
3.18,1.10,-0.15,0.45,-0.09,-0.07,-0.00
3.183,1.10,-0.15,0.45,-0.07,-0.05,-0.01
3.184,1.03,-0.17,0.42,-0.07,-0.05,-0.01
3.184,1.03,-0.17,0.42,-0.06,-0.04,-0.01
3.186,1.03,-0.17,0.42,-0.05,-0.03,-0.02
3.187,0.95,-0.21,0.42,-0.05,-0.03,-0.02
3.188,0.95,-0.21,0.42,-0.04,-0.02,-0.03
3.19,0.95,-0.21,0.42,-0.04,-0.01,-0.03
3.19,0.82,-0.24,0.37,-0.04,-0.01,-0.03
3.192,0.82,-0.24,0.37,-0.03,0.00,-0.03
3.194,0.82,-0.24,0.37,-0.02,0.00,-0.03
3.194,0.69,-0.26,0.34,-0.02,0.00,-0.03
3.196,0.69,-0.26,0.34,-0.01,0.01,-0.04
3.198,0.69,-0.26,0.34,-0.01,0.01,-0.04
3.198,0.56,-0.28,0.30,-0.01,0.01,-0.04
3.2,0.56,-0.28,0.30,-0.00,0.01,-0.04
3.202,0.56,-0.28,0.30,0.00,0.02,-0.04
3.202,0.44,-0.31,0.27,0.00,0.02,-0.04
3.204,0.44,-0.31,0.27,0.01,0.02,-0.04
3.206,0.44,-0.31,0.27,0.01,0.02,-0.04
3.207,0.33,-0.30,0.24,0.01,0.02,-0.04
3.209,0.33,-0.30,0.24,0.01,0.02,-0.03
3.21,0.33,-0.30,0.24,0.02,0.03,-0.03
3.21,0.24,-0.27,0.22,0.02,0.03,-0.03
3.212,0.24,-0.27,0.22,0.02,0.03,-0.03
3.214,0.24,-0.27,0.22,0.03,0.03,-0.03
3.214,0.16,-0.23,0.19,0.03,0.03,-0.03
3.216,0.16,-0.23,0.19,0.03,0.03,-0.03
3.218,0.16,-0.23,0.19,0.04,0.04,-0.02
3.218,0.11,-0.17,0.15,0.04,0.04,-0.02
3.22,0.11,-0.17,0.15,0.04,0.04,-0.02
3.222,0.11,-0.17,0.15,0.04,0.04,-0.02
3.222,0.08,-0.12,0.11,0.04,0.04,-0.02
3.224,0.08,-0.12,0.11,0.05,0.04,-0.02
3.226,0.08,-0.12,0.11,0.05,0.05,-0.02
3.226,0.06,-0.10,0.06,0.05,0.05,-0.02
3.228,0.06,-0.10,0.06,0.06,0.05,-0.02
3.23,0.06,-0.10,0.06,0.06,0.04,-0.01
3.23,0.07,-0.08,-0.01,0.06,0.04,-0.01
3.232,0.07,-0.08,-0.01,0.06,0.05,-0.01
3.234,0.07,-0.08,-0.01,0.06,0.04,-0.01
3.234,0.08,-0.08,-0.10,0.06,0.04,-0.01
3.235,0.08,-0.08,-0.10,0.07,0.05,-0.00
3.238,0.08,-0.08,-0.10,0.06,0.05,-0.00
3.238,0.10,-0.11,-0.21,0.06,0.05,-0.00
3.24,0.10,-0.11,-0.21,0.06,0.05,-0.00
3.245,0.10,-0.11,-0.21,0.06,0.04,0.00
3.246,0.14,-0.12,-0.31,0.06,0.04,0.00
3.246,0.14,-0.12,-0.31,0.06,0.04,0.00
3.246,0.14,-0.12,-0.31,0.05,0.04,0.00
3.246,0.19,-0.13,-0.41,0.05,0.04,0.00
3.248,0.19,-0.13,-0.41,0.05,0.04,0.01
3.25,0.19,-0.13,-0.41,0.04,0.04,0.01
3.251,0.22,-0.12,-0.48,0.04,0.04,0.01
3.252,0.22,-0.12,-0.48,0.04,0.04,0.01
3.254,0.22,-0.12,-0.48,0.03,0.04,0.01
3.254,0.28,-0.13,-0.57,0.03,0.04,0.01
3.256,0.28,-0.13,-0.57,0.03,0.04,0.01
3.261,0.28,-0.13,-0.57,0.02,0.03,0.01
3.261,0.31,-0.11,-0.61,0.02,0.03,0.01
3.262,0.31,-0.11,-0.61,0.02,0.03,0.01
3.262,0.31,-0.11,-0.61,0.01,0.03,0.01
3.262,0.34,-0.12,-0.64,0.01,0.03,0.01
3.264,0.34,-0.12,-0.64,0.00,0.03,0.01
3.266,0.34,-0.12,-0.64,-0.01,0.03,0.01
3.266,0.36,-0.11,-0.65,-0.01,0.03,0.01
3.268,0.36,-0.11,-0.65,-0.01,0.02,0.01
3.27,0.36,-0.11,-0.65,-0.02,0.02,0.01
3.27,0.37,-0.11,-0.63,-0.02,0.02,0.01
3.271,0.37,-0.11,-0.63,-0.02,0.02,0.01
3.274,0.37,-0.11,-0.63,-0.03,0.01,0.01
3.274,0.37,-0.12,-0.58,-0.03,0.01,0.01
3.276,0.37,-0.12,-0.58,-0.03,0.01,0.01
3.278,0.37,-0.12,-0.58,-0.03,0.01,0.01
3.278,0.33,-0.12,-0.51,-0.03,0.01,0.01
3.28,0.33,-0.12,-0.51,-0.04,0.00,0.00
3.282,0.33,-0.12,-0.51,-0.04,-0.00,0.00
3.282,0.31,-0.13,-0.44,-0.04,-0.00,0.00
3.283,0.31,-0.13,-0.44,-0.04,-0.00,0.01
3.286,0.31,-0.13,-0.44,-0.05,-0.01,0.00
3.286,0.27,-0.13,-0.35,-0.05,-0.01,0.00
3.287,0.27,-0.13,-0.35,-0.04,-0.01,0.00
3.29,0.27,-0.13,-0.35,-0.04,-0.01,0.01
3.29,0.24,-0.13,-0.24,-0.04,-0.01,0.01
3.292,0.24,-0.13,-0.24,-0.04,-0.02,0.00
3.294,0.24,-0.13,-0.24,-0.04,-0.02,0.00
3.294,0.18,-0.15,-0.14,-0.04,-0.02,0.00
3.296,0.18,-0.15,-0.14,-0.04,-0.02,0.00
3.298,0.18,-0.15,-0.14,-0.04,-0.03,0.00
3.298,0.14,-0.15,-0.06,-0.04,-0.03,0.00
3.3,0.14,-0.15,-0.06,-0.03,-0.03,0.00
3.302,0.14,-0.15,-0.06,-0.03,-0.03,0.00
3.302,0.10,-0.15,0.02,-0.03,-0.03,0.00
3.303,0.10,-0.15,0.02,-0.03,-0.03,0.01
3.306,0.10,-0.15,0.02,-0.02,-0.03,0.01
3.306,0.06,-0.13,0.09,-0.02,-0.03,0.01
3.307,0.06,-0.13,0.09,-0.02,-0.03,0.01
3.31,0.06,-0.13,0.09,-0.01,-0.03,0.01
3.311,0.04,-0.12,0.13,-0.01,-0.03,0.01
3.311,0.04,-0.12,0.13,-0.01,-0.03,0.01
3.314,0.04,-0.12,0.13,-0.01,-0.03,0.01
3.317,0.01,-0.11,0.16,-0.01,-0.03,0.01
3.317,0.01,-0.11,0.16,-0.00,-0.03,0.01
3.318,0.01,-0.11,0.16,0.00,-0.03,0.01
3.318,0.01,-0.08,0.17,0.00,-0.03,0.01
3.319,0.01,-0.08,0.17,0.01,-0.03,0.01
3.322,0.01,-0.08,0.17,0.01,-0.03,0.01
3.322,0.00,-0.05,0.16,0.01,-0.03,0.01
3.323,0.00,-0.05,0.16,0.01,-0.02,0.01
3.333,0.00,-0.05,0.16,0.02,-0.02,0.01
3.333,-0.00,-0.03,0.15,0.02,-0.02,0.01
3.334,-0.00,-0.03,0.15,0.02,-0.02,0.01
3.334,-0.00,-0.03,0.15,0.02,-0.01,0.01
3.335,0.02,-0.05,0.11,0.02,-0.01,0.01
3.335,0.02,-0.05,0.11,0.03,-0.01,0.01
3.335,0.02,-0.05,0.11,0.03,-0.00,0.01
3.335,0.01,-0.03,0.06,0.03,-0.00,0.01
3.336,0.01,-0.03,0.06,0.03,0.00,0.02
3.338,0.01,-0.03,0.06,0.03,0.01,0.01
3.338,0.02,-0.03,0.01,0.03,0.01,0.01
3.339,0.02,-0.03,0.01,0.03,0.01,0.01
3.353,0.02,-0.03,0.01,0.03,0.02,0.02
3.354,0.04,-0.06,-0.06,0.03,0.02,0.02
3.354,0.04,-0.06,-0.06,0.03,0.02,0.01
3.355,0.04,-0.06,-0.06,0.04,0.03,0.02
3.355,0.04,-0.06,-0.12,0.04,0.03,0.02
3.355,0.04,-0.06,-0.12,0.04,0.03,0.02
3.355,0.04,-0.06,-0.12,0.03,0.03,0.02
3.356,0.04,-0.09,-0.15,0.03,0.03,0.02
3.356,0.04,-0.09,-0.15,0.03,0.03,0.02
3.356,0.04,-0.09,-0.15,0.03,0.04,0.02
3.357,0.04,-0.09,-0.22,0.03,0.04,0.02
3.357,0.04,-0.09,-0.22,0.03,0.04,0.02
3.362,0.04,-0.09,-0.22,0.03,0.03,0.03
3.362,0.03,-0.11,-0.25,0.03,0.03,0.03
3.363,0.03,-0.11,-0.25,0.02,0.03,0.02
3.363,0.03,-0.11,-0.25,0.02,0.04,0.02
3.363,0.06,-0.12,-0.29,0.02,0.04,0.02
3.364,0.06,-0.12,-0.29,0.02,0.03,0.03
3.366,0.06,-0.12,-0.29,0.01,0.03,0.03
3.366,0.05,-0.11,-0.30,0.01,0.03,0.03
3.367,0.05,-0.11,-0.30,0.01,0.03,0.03
3.37,0.05,-0.11,-0.30,0.01,0.03,0.03
3.37,0.06,-0.10,-0.31,0.01,0.03,0.03
3.371,0.06,-0.10,-0.31,0.01,0.02,0.03
3.373,0.06,-0.10,-0.31,0.00,0.02,0.03
3.374,0.06,-0.09,-0.30,0.00,0.02,0.03
3.375,0.06,-0.09,-0.30,-0.00,0.02,0.03
3.378,0.06,-0.09,-0.30,-0.00,0.01,0.03
3.378,0.06,-0.08,-0.29,-0.00,0.01,0.03
3.379,0.06,-0.08,-0.29,-0.01,0.01,0.03
3.382,0.06,-0.08,-0.29,-0.01,0.01,0.03
3.382,0.06,-0.07,-0.24,-0.01,0.01,0.03
3.383,0.06,-0.07,-0.24,-0.01,0.00,0.03
3.385,0.06,-0.07,-0.24,-0.02,-0.00,0.03
3.386,0.06,-0.07,-0.23,-0.02,-0.00,0.03
3.387,0.06,-0.07,-0.23,-0.02,-0.00,0.03
3.39,0.06,-0.07,-0.23,-0.02,-0.01,0.03
3.39,0.05,-0.08,-0.19,-0.02,-0.01,0.03
3.392,0.05,-0.08,-0.19,-0.02,-0.02,0.03
3.393,0.05,-0.08,-0.19,-0.02,-0.02,0.03
3.394,0.05,-0.10,-0.14,-0.02,-0.02,0.03
3.395,0.05,-0.10,-0.14,-0.02,-0.02,0.03
3.398,0.05,-0.10,-0.14,-0.02,-0.02,0.03
3.398,0.04,-0.11,-0.09,-0.02,-0.02,0.03
3.399,0.04,-0.11,-0.09,-0.02,-0.02,0.03
3.401,0.04,-0.11,-0.09,-0.02,-0.03,0.03
3.402,0.05,-0.11,-0.06,-0.02,-0.03,0.03
3.403,0.05,-0.11,-0.06,-0.01,-0.03,0.03
3.405,0.05,-0.11,-0.06,-0.01,-0.03,0.03
3.406,0.06,-0.11,-0.03,-0.01,-0.03,0.03
3.407,0.06,-0.11,-0.03,-0.01,-0.03,0.03
3.409,0.06,-0.11,-0.03,-0.01,-0.03,0.03
3.41,0.08,-0.11,0.00,-0.01,-0.03,0.03
3.411,0.08,-0.11,0.00,-0.01,-0.03,0.03
3.413,0.08,-0.11,0.00,-0.01,-0.03,0.03
3.414,0.09,-0.11,0.02,-0.01,-0.03,0.03
3.415,0.09,-0.11,0.02,-0.01,-0.02,0.03
3.417,0.09,-0.11,0.02,-0.01,-0.02,0.03
3.418,0.09,-0.09,0.04,-0.01,-0.02,0.03
3.419,0.09,-0.09,0.04,-0.00,-0.02,0.03
3.421,0.09,-0.09,0.04,0.00,-0.02,0.03
3.422,0.11,-0.09,0.04,0.00,-0.02,0.03
3.423,0.11,-0.09,0.04,0.00,-0.01,0.03
3.425,0.11,-0.09,0.04,0.00,-0.01,0.03
3.426,0.11,-0.08,0.05,0.00,-0.01,0.03
3.427,0.11,-0.08,0.05,0.00,-0.01,0.03
3.43,0.11,-0.08,0.05,0.01,-0.00,0.02
3.43,0.09,-0.07,0.04,0.01,-0.00,0.02
3.431,0.09,-0.07,0.04,0.01,0.00,0.02
3.433,0.09,-0.07,0.04,0.01,0.01,0.02
3.434,0.08,-0.04,0.04,0.01,0.01,0.02
3.435,0.08,-0.04,0.04,0.01,0.01,0.02
3.437,0.08,-0.04,0.04,0.01,0.01,0.02
3.437,0.07,-0.04,0.03,0.01,0.01,0.02
3.439,0.07,-0.04,0.03,0.02,0.01,0.02
3.448,0.07,-0.04,0.03,0.02,0.02,0.02
3.449,0.06,-0.03,0.02,0.02,0.02,0.02
3.449,0.06,-0.03,0.02,0.02,0.02,0.02
3.449,0.06,-0.03,0.02,0.02,0.02,0.02
3.45,0.05,-0.02,0.01,0.02,0.02,0.02
3.452,0.05,-0.02,0.01,0.02,0.02,0.01
3.453,0.05,-0.02,0.01,0.03,0.02,0.01
3.453,0.00,-0.04,-0.01,0.03,0.02,0.01
3.453,0.00,-0.04,-0.01,0.03,0.02,0.02
3.454,0.00,-0.04,-0.01,0.02,0.02,0.01
3.454,-0.02,-0.04,-0.02,0.02,0.02,0.01
3.455,-0.02,-0.04,-0.02,0.03,0.02,0.01
3.457,-0.02,-0.04,-0.02,0.02,0.02,0.01
3.458,-0.06,-0.05,-0.05,0.02,0.02,0.01
3.47,-0.06,-0.05,-0.05,0.03,0.02,0.01
3.471,-0.06,-0.05,-0.05,0.03,0.02,0.02
3.471,-0.09,-0.05,-0.09,0.03,0.02,0.02
3.471,-0.09,-0.05,-0.09,0.02,0.03,0.02
3.472,-0.09,-0.05,-0.09,0.02,0.02,0.02
3.472,-0.10,-0.07,-0.11,0.02,0.02,0.02
3.472,-0.10,-0.07,-0.11,0.02,0.02,0.02
3.473,-0.10,-0.07,-0.11,0.02,0.02,0.02
3.473,-0.10,-0.06,-0.12,0.02,0.02,0.02
3.473,-0.10,-0.06,-0.12,0.02,0.02,0.02
3.474,-0.10,-0.06,-0.12,0.02,0.02,0.02
3.474,-0.10,-0.08,-0.15,0.02,0.02,0.02
3.482,-0.10,-0.08,-0.15,0.02,0.02,0.02
3.483,-0.10,-0.08,-0.15,0.02,0.01,0.02
3.483,-0.10,-0.08,-0.13,0.02,0.01,0.02
3.483,-0.10,-0.08,-0.13,0.01,0.01,0.02
3.484,-0.10,-0.08,-0.13,0.01,0.01,0.02
3.484,-0.10,-0.08,-0.13,0.01,0.01,0.02
3.484,-0.10,-0.08,-0.13,0.01,0.01,0.02
3.485,-0.10,-0.08,-0.13,0.01,0.01,0.02
3.486,-0.10,-0.07,-0.14,0.01,0.01,0.02
3.487,-0.10,-0.07,-0.14,0.01,0.01,0.02
3.489,-0.10,-0.07,-0.14,0.01,0.01,0.02
3.49,-0.11,-0.09,-0.13,0.01,0.01,0.02
3.491,-0.11,-0.09,-0.13,0.01,0.01,0.02
3.493,-0.11,-0.09,-0.13,0.01,0.00,0.02
3.494,-0.12,-0.06,-0.13,0.01,0.00,0.02
3.495,-0.12,-0.06,-0.13,0.01,0.01,0.02
3.497,-0.12,-0.06,-0.13,0.01,0.00,0.02
3.498,-0.12,-0.07,-0.10,0.01,0.00,0.02
3.499,-0.12,-0.07,-0.10,0.01,0.00,0.02
3.501,-0.12,-0.07,-0.10,0.01,0.00,0.02
3.502,-0.10,-0.05,-0.08,0.01,0.00,0.02
3.503,-0.10,-0.05,-0.08,0.01,-0.00,0.01
3.505,-0.10,-0.05,-0.08,0.01,-0.00,0.02
3.505,-0.10,-0.04,-0.10,0.01,-0.00,0.02
3.507,-0.10,-0.04,-0.10,0.01,-0.00,0.01
3.509,-0.10,-0.04,-0.10,0.01,-0.01,0.01
3.51,-0.09,-0.03,-0.07,0.01,-0.01,0.01
3.511,-0.09,-0.03,-0.07,0.01,-0.01,0.01
3.513,-0.09,-0.03,-0.07,0.01,-0.01,0.01
3.513,-0.07,-0.04,-0.07,0.01,-0.01,0.01
3.515,-0.07,-0.04,-0.07,0.01,-0.01,0.01
3.517,-0.07,-0.04,-0.07,0.01,-0.01,0.01
3.517,-0.05,-0.04,-0.08,0.01,-0.01,0.01
3.519,-0.05,-0.04,-0.08,0.01,-0.01,0.01
3.521,-0.05,-0.04,-0.08,0.01,-0.01,0.01
3.521,-0.04,-0.04,-0.05,0.01,-0.01,0.01
3.523,-0.04,-0.04,-0.05,0.01,-0.01,0.01
3.525,-0.04,-0.04,-0.05,0.00,-0.01,0.01
3.526,-0.04,-0.02,-0.06,0.00,-0.01,0.01
3.527,-0.04,-0.02,-0.06,0.00,-0.01,0.01
3.529,-0.04,-0.02,-0.06,0.00,-0.01,0.01
3.53,-0.05,0.00,-0.05,0.00,-0.01,0.01
3.531,-0.05,0.00,-0.05,-0.00,-0.01,0.01
3.533,-0.05,0.00,-0.05,-0.00,-0.01,0.01
3.533,-0.03,0.02,-0.06,-0.00,-0.01,0.01
3.535,-0.03,0.02,-0.06,-0.00,-0.00,0.01
3.537,-0.03,0.02,-0.06,-0.01,-0.00,0.01
3.537,-0.03,0.01,-0.04,-0.01,-0.00,0.01
3.539,-0.03,0.01,-0.04,-0.01,0.00,0.01
3.541,-0.03,0.01,-0.04,-0.00,0.00,0.01
3.541,-0.03,-0.01,-0.03,-0.00,0.00,0.01
3.543,-0.03,-0.01,-0.03,-0.01,0.00,0.00
3.545,-0.03,-0.01,-0.03,-0.01,0.01,0.01
3.545,-0.04,-0.04,0.02,-0.01,0.01,0.01
3.547,-0.04,-0.04,0.02,-0.01,0.01,0.01
3.549,-0.04,-0.04,0.02,-0.00,0.01,0.01
3.55,-0.05,-0.04,0.02,-0.00,0.01,0.01
3.551,-0.05,-0.04,0.02,-0.00,0.02,0.01
3.553,-0.05,-0.04,0.02,-0.00,0.02,0.01
3.553,-0.07,-0.05,0.05,-0.00,0.02,0.01
3.554,-0.07,-0.05,0.05,-0.00,0.02,0.01
3.557,-0.07,-0.05,0.05,0.00,0.02,0.01
3.557,-0.07,-0.05,0.05,0.00,0.02,0.01
3.565,-0.07,-0.05,0.05,-0.00,0.03,0.01
3.565,-0.07,-0.05,0.05,0.00,0.03,0.01
3.566,-0.08,-0.06,0.04,0.00,0.03,0.01
3.566,-0.08,-0.06,0.04,0.00,0.03,0.01
3.566,-0.08,-0.06,0.04,0.00,0.04,0.01
3.567,-0.08,-0.04,0.02,0.00,0.04,0.01
3.567,-0.08,-0.04,0.02,0.01,0.04,0.01
3.569,-0.08,-0.04,0.02,0.01,0.04,0.01
3.57,-0.07,-0.05,0.01,0.01,0.04,0.01
3.57,-0.07,-0.05,0.01,0.01,0.04,0.01
3.573,-0.07,-0.05,0.01,0.01,0.04,0.01
3.573,-0.09,-0.04,-0.01,0.01,0.04,0.01
3.585,-0.09,-0.04,-0.01,0.01,0.05,0.00
3.586,-0.09,-0.04,-0.01,0.01,0.04,0.01
3.586,-0.10,-0.04,-0.02,0.01,0.04,0.01
3.586,-0.10,-0.04,-0.02,0.01,0.05,0.01
3.589,-0.10,-0.04,-0.02,0.01,0.05,0.00
3.589,-0.09,-0.03,-0.03,0.01,0.05,0.00
3.589,-0.09,-0.03,-0.03,0.01,0.05,0.00
3.59,-0.09,-0.03,-0.03,0.01,0.05,0.00
3.59,-0.08,-0.03,-0.04,0.01,0.05,0.00
3.59,-0.08,-0.03,-0.04,0.01,0.05,0.00
3.59,-0.08,-0.03,-0.04,0.01,0.06,0.00
3.59,-0.08,-0.03,-0.07,0.01,0.06,0.00
3.591,-0.08,-0.03,-0.07,0.01,0.06,-0.00
3.593,-0.08,-0.03,-0.07,0.01,0.06,-0.00
3.593,-0.07,-0.05,-0.08,0.01,0.06,-0.00
3.594,-0.07,-0.05,-0.08,0.01,0.06,-0.00
3.597,-0.07,-0.05,-0.08,0.01,0.06,-0.00
3.597,-0.05,-0.04,-0.10,0.01,0.06,-0.00
3.598,-0.05,-0.04,-0.10,0.01,0.06,-0.01
3.601,-0.05,-0.04,-0.10,0.01,0.06,-0.00
3.601,-0.06,-0.02,-0.10,0.01,0.06,-0.00
3.602,-0.06,-0.02,-0.10,0.00,0.05,-0.01
3.605,-0.06,-0.02,-0.10,0.00,0.06,-0.01
3.605,-0.07,-0.02,-0.11,0.00,0.06,-0.01
3.606,-0.07,-0.02,-0.11,0.00,0.05,-0.01
3.609,-0.07,-0.02,-0.11,0.00,0.05,-0.01
3.609,-0.07,-0.01,-0.10,0.00,0.05,-0.01
3.61,-0.07,-0.01,-0.10,0.00,0.04,-0.01
3.613,-0.07,-0.01,-0.10,-0.00,0.04,-0.01
3.613,-0.09,-0.02,-0.08,-0.00,0.04,-0.01
3.615,-0.09,-0.02,-0.08,-0.00,0.04,-0.01
3.617,-0.09,-0.02,-0.08,-0.00,0.04,-0.01
3.617,-0.09,-0.04,-0.06,-0.00,0.04,-0.01
3.618,-0.09,-0.04,-0.06,-0.00,0.03,-0.01
3.62,-0.09,-0.04,-0.06,-0.01,0.03,-0.01
3.621,-0.12,-0.05,-0.04,-0.01,0.03,-0.01
3.622,-0.12,-0.05,-0.04,-0.01,0.03,-0.01
3.625,-0.12,-0.05,-0.04,-0.01,0.03,-0.01
3.625,-0.12,-0.05,-0.01,-0.01,0.03,-0.01
3.626,-0.12,-0.05,-0.01,-0.01,0.03,-0.01
3.629,-0.12,-0.05,-0.01,-0.01,0.02,-0.01
3.629,-0.13,-0.03,-0.00,-0.01,0.02,-0.01
3.63,-0.13,-0.03,-0.00,-0.01,0.02,-0.02
3.633,-0.13,-0.03,-0.00,-0.01,0.02,-0.01
3.633,-0.12,-0.00,0.02,-0.01,0.02,-0.01
3.634,-0.12,-0.00,0.02,-0.01,0.02,-0.01
3.636,-0.12,-0.00,0.02,-0.01,0.01,-0.01
3.637,-0.13,0.02,0.03,-0.01,0.01,-0.01
3.638,-0.13,0.02,0.03,-0.01,0.02,-0.01
3.64,-0.13,0.02,0.03,-0.01,0.01,-0.01
3.641,-0.14,0.02,0.05,-0.01,0.01,-0.01
3.642,-0.14,0.02,0.05,-0.01,0.01,-0.01
3.645,-0.14,0.02,0.05,-0.01,0.01,-0.01
3.645,-0.14,0.01,0.05,-0.01,0.01,-0.01
3.646,-0.14,0.01,0.05,-0.01,0.01,-0.01
3.649,-0.14,0.01,0.05,-0.01,0.02,-0.01
3.649,-0.13,0.00,0.05,-0.01,0.02,-0.01
3.65,-0.13,0.00,0.05,-0.01,0.02,-0.01
3.652,-0.13,0.00,0.05,-0.01,0.02,-0.00
3.653,-0.13,-0.00,0.07,-0.01,0.02,-0.00
3.654,-0.13,-0.00,0.07,-0.01,0.02,-0.00
3.656,-0.13,-0.00,0.07,-0.01,0.02,-0.00
3.657,-0.11,-0.01,0.05,-0.01,0.02,-0.00
3.665,-0.11,-0.01,0.05,-0.01,0.03,-0.00
3.666,-0.11,-0.01,0.05,-0.01,0.03,-0.00
3.666,-0.08,-0.02,0.05,-0.01,0.03,-0.00
3.666,-0.08,-0.02,0.05,-0.01,0.03,-0.00
3.667,-0.08,-0.02,0.05,-0.01,0.04,0.00
3.667,-0.06,-0.04,0.03,-0.01,0.04,0.00
3.667,-0.06,-0.04,0.03,-0.01,0.03,0.00
3.669,-0.06,-0.04,0.03,-0.01,0.04,0.00
3.669,-0.03,-0.04,-0.00,-0.01,0.04,0.00
3.67,-0.03,-0.04,-0.00,-0.01,0.04,0.00
3.673,-0.03,-0.04,-0.00,-0.01,0.04,0.00
3.673,-0.01,-0.06,-0.01,-0.01,0.04,0.00
3.674,-0.01,-0.06,-0.01,-0.01,0.04,0.00
3.685,-0.01,-0.06,-0.01,-0.01,0.04,0.00
3.686,0.02,-0.07,-0.03,-0.01,0.04,0.00
3.686,0.02,-0.07,-0.03,-0.01,0.04,0.00
3.686,0.02,-0.07,-0.03,-0.01,0.04,0.00
3.686,0.05,-0.08,-0.03,-0.01,0.04,0.00
3.686,0.05,-0.08,-0.03,-0.01,0.04,0.00
3.687,0.05,-0.08,-0.03,-0.01,0.04,0.00
3.687,0.06,-0.08,-0.03,-0.01,0.04,0.00
3.687,0.06,-0.08,-0.03,-0.01,0.04,-0.00
3.689,0.06,-0.08,-0.03,-0.01,0.05,-0.00
3.689,0.07,-0.06,-0.04,-0.01,0.05,-0.00
3.69,0.07,-0.06,-0.04,-0.01,0.04,-0.00
3.694,0.07,-0.06,-0.04,-0.01,0.04,-0.00
3.694,0.08,-0.04,-0.06,-0.01,0.04,-0.00
3.694,0.08,-0.04,-0.06,-0.01,0.04,-0.00
3.697,0.08,-0.04,-0.06,-0.01,0.04,-0.01
3.697,0.09,-0.02,-0.06,-0.01,0.04,-0.01
3.698,0.09,-0.02,-0.06,-0.01,0.05,-0.01
3.7,0.09,-0.02,-0.06,-0.01,0.05,-0.01
3.701,0.11,-0.01,-0.07,-0.01,0.05,-0.01
3.702,0.11,-0.01,-0.07,-0.01,0.05,-0.01
3.704,0.11,-0.01,-0.07,-0.01,0.05,-0.01
3.705,0.12,0.03,-0.06,-0.01,0.05,-0.01
3.706,0.12,0.03,-0.06,-0.01,0.05,-0.02
3.709,0.12,0.03,-0.06,-0.01,0.05,-0.02
3.709,0.12,0.05,-0.05,-0.01,0.05,-0.02
3.71,0.12,0.05,-0.05,-0.01,0.05,-0.02
3.712,0.12,0.05,-0.05,-0.01,0.05,-0.02
3.715,0.11,0.09,-0.04,-0.01,0.05,-0.02
3.715,0.11,0.09,-0.04,-0.01,0.06,-0.02
3.717,0.11,0.09,-0.04,-0.01,0.06,-0.02
3.717,0.08,0.10,-0.04,-0.01,0.06,-0.02
3.718,0.08,0.10,-0.04,-0.01,0.06,-0.02
3.72,0.08,0.10,-0.04,-0.01,0.06,-0.02
3.721,0.04,0.10,-0.02,-0.01,0.06,-0.02
3.722,0.04,0.10,-0.02,-0.01,0.07,-0.02
3.724,0.04,0.10,-0.02,-0.01,0.07,-0.02
3.725,0.02,0.09,-0.01,-0.01,0.07,-0.02
3.726,0.02,0.09,-0.01,-0.01,0.07,-0.02
3.728,0.02,0.09,-0.01,-0.01,0.07,-0.02
3.729,0.00,0.06,-0.02,-0.01,0.07,-0.02
3.73,0.00,0.06,-0.02,-0.01,0.07,-0.03
3.733,0.00,0.06,-0.02,-0.01,0.07,-0.02
3.733,-0.04,0.03,0.01,-0.01,0.07,-0.02
3.734,-0.04,0.03,0.01,-0.01,0.08,-0.02
3.736,-0.04,0.03,0.01,-0.01,0.07,-0.02
3.737,-0.06,-0.01,-0.01,-0.01,0.07,-0.02
3.738,-0.06,-0.01,-0.01,-0.00,0.07,-0.02
3.74,-0.06,-0.01,-0.01,-0.00,0.07,-0.02
3.741,-0.07,-0.05,-0.00,-0.00,0.07,-0.02
3.742,-0.07,-0.05,-0.00,0.00,0.07,-0.02
3.744,-0.07,-0.05,-0.00,0.00,0.06,-0.02
3.745,-0.09,-0.11,0.00,0.00,0.06,-0.02
3.746,-0.09,-0.11,0.00,0.00,0.06,-0.02
3.749,-0.09,-0.11,0.00,0.00,0.06,-0.02
3.749,-0.09,-0.14,-0.01,0.00,0.06,-0.02
3.75,-0.09,-0.14,-0.01,0.00,0.05,-0.02
3.752,-0.09,-0.14,-0.01,0.01,0.05,-0.03
3.752,-0.10,-0.15,-0.03,0.01,0.05,-0.03
3.754,-0.10,-0.15,-0.03,0.01,0.04,-0.03
3.756,-0.10,-0.15,-0.03,0.01,0.03,-0.03
3.756,-0.10,-0.14,-0.05,0.01,0.03,-0.03
3.759,-0.10,-0.14,-0.05,0.00,0.02,-0.03
3.76,-0.10,-0.14,-0.05,0.00,0.02,-0.03
3.76,-0.10,-0.11,-0.07,0.00,0.02,-0.03
3.762,-0.10,-0.11,-0.07,0.00,0.01,-0.03
3.765,-0.10,-0.11,-0.07,0.00,0.00,-0.03
3.765,-0.12,-0.09,-0.11,0.00,0.00,-0.03
3.766,-0.12,-0.09,-0.11,-0.00,-0.00,-0.03
3.768,-0.12,-0.09,-0.11,-0.01,-0.01,-0.03
3.769,-0.11,-0.04,-0.13,-0.01,-0.01,-0.03
3.77,-0.11,-0.04,-0.13,-0.01,-0.02,-0.03
3.772,-0.11,-0.04,-0.13,-0.01,-0.02,-0.03
3.773,-0.13,-0.03,-0.12,-0.01,-0.02,-0.03
3.774,-0.13,-0.03,-0.12,-0.01,-0.03,-0.03
3.782,-0.13,-0.03,-0.12,-0.01,-0.04,-0.04
3.782,-0.16,-0.01,-0.12,-0.01,-0.04,-0.04
3.783,-0.16,-0.01,-0.12,-0.01,-0.05,-0.04
3.783,-0.16,-0.01,-0.12,-0.02,-0.05,-0.03
3.783,-0.19,-0.01,-0.12,-0.02,-0.05,-0.03
3.784,-0.19,-0.01,-0.12,-0.02,-0.06,-0.03
3.784,-0.19,-0.01,-0.12,-0.02,-0.07,-0.03
3.785,-0.22,-0.02,-0.10,-0.02,-0.07,-0.03
3.786,-0.22,-0.02,-0.10,-0.01,-0.07,-0.03
3.788,-0.22,-0.02,-0.10,-0.01,-0.08,-0.03
3.789,-0.26,-0.02,-0.10,-0.01,-0.08,-0.03
3.79,-0.26,-0.02,-0.10,-0.02,-0.09,-0.02
3.802,-0.26,-0.02,-0.10,-0.02,-0.09,-0.02
3.803,-0.28,-0.02,-0.11,-0.02,-0.09,-0.02
3.803,-0.28,-0.02,-0.11,-0.02,-0.10,-0.01
3.804,-0.28,-0.02,-0.11,-0.02,-0.10,-0.01
3.804,-0.29,-0.04,-0.13,-0.02,-0.10,-0.01
3.804,-0.29,-0.04,-0.13,-0.02,-0.10,-0.01
3.804,-0.29,-0.04,-0.13,-0.02,-0.11,0.00
3.805,-0.28,-0.08,-0.17,-0.02,-0.11,0.00
3.805,-0.28,-0.08,-0.17,-0.02,-0.11,0.00
3.805,-0.28,-0.08,-0.17,-0.02,-0.11,0.01
3.805,-0.26,-0.14,-0.20,-0.02,-0.11,0.01
3.806,-0.26,-0.14,-0.20,-0.02,-0.11,0.01
3.809,-0.26,-0.14,-0.20,-0.02,-0.11,0.02
3.809,-0.23,-0.18,-0.22,-0.02,-0.11,0.02
3.81,-0.23,-0.18,-0.22,-0.02,-0.11,0.02
3.812,-0.23,-0.18,-0.22,-0.02,-0.12,0.03
3.812,-0.19,-0.21,-0.25,-0.02,-0.12,0.03
3.814,-0.19,-0.21,-0.25,-0.02,-0.11,0.03
3.816,-0.19,-0.21,-0.25,-0.02,-0.11,0.03
3.816,-0.14,-0.23,-0.26,-0.02,-0.11,0.03
3.818,-0.14,-0.23,-0.26,-0.02,-0.11,0.03
3.82,-0.14,-0.23,-0.26,-0.03,-0.11,0.03
3.82,-0.08,-0.22,-0.31,-0.03,-0.11,0.03
3.822,-0.08,-0.22,-0.31,-0.03,-0.10,0.03
3.824,-0.08,-0.22,-0.31,-0.03,-0.10,0.03
3.824,-0.01,-0.23,-0.31,-0.03,-0.10,0.03
3.826,-0.01,-0.23,-0.31,-0.03,-0.10,0.04
3.828,-0.01,-0.23,-0.31,-0.03,-0.09,0.03
3.828,0.04,-0.21,-0.33,-0.03,-0.09,0.03
3.83,0.04,-0.21,-0.33,-0.03,-0.08,0.03
3.832,0.04,-0.21,-0.33,-0.03,-0.08,0.03
3.833,0.10,-0.19,-0.34,-0.03,-0.08,0.03
3.834,0.10,-0.19,-0.34,-0.03,-0.08,0.03
3.836,0.10,-0.19,-0.34,-0.03,-0.08,0.03
3.836,0.14,-0.18,-0.32,-0.03,-0.08,0.03
3.838,0.14,-0.18,-0.32,-0.04,-0.07,0.03
3.84,0.14,-0.18,-0.32,-0.03,-0.07,0.03
3.84,0.17,-0.14,-0.29,-0.03,-0.07,0.03
3.842,0.17,-0.14,-0.29,-0.03,-0.07,0.03
3.844,0.17,-0.14,-0.29,-0.03,-0.07,0.02
3.844,0.20,-0.12,-0.27,-0.03,-0.07,0.02
3.847,0.20,-0.12,-0.27,-0.03,-0.07,0.03
3.848,0.20,-0.12,-0.27,-0.03,-0.07,0.02
3.849,0.23,-0.07,-0.23,-0.03,-0.07,0.02
3.85,0.23,-0.07,-0.23,-0.03,-0.08,0.02
3.852,0.23,-0.07,-0.23,-0.03,-0.08,0.02
3.852,0.25,-0.06,-0.21,-0.03,-0.08,0.02
3.854,0.25,-0.06,-0.21,-0.03,-0.08,0.02
3.856,0.25,-0.06,-0.21,-0.03,-0.08,0.01
3.856,0.28,-0.04,-0.18,-0.03,-0.08,0.01
3.858,0.28,-0.04,-0.18,-0.03,-0.08,0.01
3.86,0.28,-0.04,-0.18,-0.03,-0.09,0.01
3.86,0.32,-0.01,-0.14,-0.03,-0.09,0.01
3.861,0.32,-0.01,-0.14,-0.03,-0.09,0.01
3.864,0.32,-0.01,-0.14,-0.03,-0.10,0.00
3.865,0.33,-0.02,-0.11,-0.03,-0.10,0.00
3.866,0.33,-0.02,-0.11,-0.03,-0.10,0.00
3.868,0.33,-0.02,-0.11,-0.03,-0.10,-0.00
3.868,0.35,-0.00,-0.08,-0.03,-0.10,-0.00
3.869,0.35,-0.00,-0.08,-0.03,-0.10,-0.00
3.872,0.35,-0.00,-0.08,-0.02,-0.11,-0.00
3.872,0.36,0.02,-0.06,-0.02,-0.11,-0.00
3.873,0.36,0.02,-0.06,-0.02,-0.11,-0.01
3.882,0.36,0.02,-0.06,-0.02,-0.11,-0.01
3.882,0.35,0.02,-0.01,-0.02,-0.11,-0.01
3.883,0.35,0.02,-0.01,-0.02,-0.11,-0.01
3.883,0.35,0.02,-0.01,-0.02,-0.11,-0.01
3.883,0.34,0.04,0.02,-0.02,-0.11,-0.01
3.884,0.34,0.04,0.02,-0.02,-0.12,-0.01
3.884,0.34,0.04,0.02,-0.01,-0.12,-0.01
3.884,0.31,0.05,0.05,-0.01,-0.12,-0.01
3.886,0.31,0.05,0.05,-0.01,-0.11,-0.01
3.888,0.31,0.05,0.05,-0.01,-0.12,-0.02
3.889,0.31,0.07,0.06,-0.01,-0.12,-0.02
3.89,0.31,0.07,0.06,0.00,-0.11,-0.01
3.902,0.31,0.07,0.06,0.00,-0.11,-0.02
3.903,0.28,0.07,0.07,0.00,-0.11,-0.02
3.903,0.28,0.07,0.07,0.00,-0.11,-0.02
3.903,0.28,0.07,0.07,0.01,-0.11,-0.02
3.903,0.27,0.08,0.06,0.01,-0.11,-0.02
3.904,0.27,0.08,0.06,0.01,-0.10,-0.02
3.904,0.27,0.08,0.06,0.01,-0.10,-0.02
3.904,0.26,0.10,0.03,0.01,-0.10,-0.02
3.905,0.26,0.10,0.03,0.01,-0.09,-0.02
3.905,0.26,0.10,0.03,0.02,-0.09,-0.02
3.905,0.24,0.11,0.01,0.02,-0.09,-0.02
3.905,0.24,0.11,0.01,0.01,-0.08,-0.02
3.909,0.24,0.11,0.01,0.02,-0.07,-0.02
3.909,0.21,0.10,-0.03,0.02,-0.07,-0.02
3.909,0.21,0.10,-0.03,0.02,-0.06,-0.02
3.912,0.21,0.10,-0.03,0.02,-0.06,-0.02
3.912,0.22,0.09,-0.07,0.02,-0.06,-0.02
3.913,0.22,0.09,-0.07,0.01,-0.05,-0.02
3.916,0.22,0.09,-0.07,0.01,-0.05,-0.02
3.916,0.20,0.05,-0.12,0.01,-0.05,-0.02
3.917,0.20,0.05,-0.12,0.01,-0.04,-0.02
3.92,0.20,0.05,-0.12,0.01,-0.03,-0.02
3.92,0.20,0.03,-0.15,0.01,-0.03,-0.02
3.921,0.20,0.03,-0.15,0.01,-0.03,-0.01
3.924,0.20,0.03,-0.15,0.01,-0.02,-0.01
3.924,0.18,0.02,-0.16,0.01,-0.02,-0.01
3.926,0.18,0.02,-0.16,0.00,-0.02,-0.01
3.928,0.18,0.02,-0.16,0.00,-0.01,-0.01
3.928,0.18,-0.03,-0.17,0.00,-0.01,-0.01
3.929,0.18,-0.03,-0.17,-0.00,-0.01,-0.01
3.932,0.18,-0.03,-0.17,-0.00,-0.01,-0.01
3.933,0.17,-0.04,-0.17,-0.00,-0.01,-0.01
3.934,0.17,-0.04,-0.17,-0.00,-0.01,-0.01
3.936,0.17,-0.04,-0.17,-0.01,-0.01,-0.01
3.936,0.15,-0.07,-0.17,-0.01,-0.01,-0.01
3.937,0.15,-0.07,-0.17,-0.01,-0.01,-0.01
3.94,0.15,-0.07,-0.17,-0.01,-0.01,-0.01
3.94,0.14,-0.09,-0.15,-0.01,-0.01,-0.01
3.942,0.14,-0.09,-0.15,-0.02,-0.01,-0.01
3.944,0.14,-0.09,-0.15,-0.02,-0.01,-0.01
3.944,0.14,-0.11,-0.12,-0.02,-0.01,-0.01
3.945,0.14,-0.11,-0.12,-0.02,-0.02,-0.01
3.948,0.14,-0.11,-0.12,-0.02,-0.02,-0.01
3.949,0.14,-0.12,-0.06,-0.02,-0.02,-0.01
3.949,0.14,-0.12,-0.06,-0.02,-0.02,-0.01
3.951,0.14,-0.12,-0.06,-0.02,-0.02,-0.01
3.952,0.13,-0.14,-0.05,-0.02,-0.02,-0.01
3.953,0.13,-0.14,-0.05,-0.02,-0.02,-0.00
3.955,0.13,-0.14,-0.05,-0.03,-0.02,-0.01
3.956,0.10,-0.14,0.00,-0.03,-0.02,-0.01
3.957,0.10,-0.14,0.00,-0.03,-0.03,-0.01
3.959,0.10,-0.14,0.00,-0.03,-0.03,-0.00
3.96,0.10,-0.13,0.06,-0.03,-0.03,-0.00
3.961,0.10,-0.13,0.06,-0.03,-0.03,-0.00
3.964,0.10,-0.13,0.06,-0.02,-0.03,-0.00
3.964,0.08,-0.17,0.10,-0.02,-0.03,-0.00
3.965,0.08,-0.17,0.10,-0.03,-0.03,-0.00
3.968,0.08,-0.17,0.10,-0.02,-0.03,0.00
3.968,0.07,-0.15,0.13,-0.02,-0.03,0.00
3.969,0.07,-0.15,0.13,-0.02,-0.03,-0.00
3.971,0.07,-0.15,0.13,-0.02,-0.02,0.00
3.972,0.06,-0.17,0.19,-0.02,-0.02,0.00
3.973,0.06,-0.17,0.19,-0.02,-0.02,-0.00
3.982,0.06,-0.17,0.19,-0.02,-0.02,0.00
3.983,0.05,-0.16,0.21,-0.02,-0.02,0.00
3.983,0.05,-0.16,0.21,-0.01,-0.02,0.00
3.986,0.05,-0.16,0.21,-0.01,-0.01,0.00
3.986,0.06,-0.14,0.24,-0.01,-0.01,0.00
3.987,0.06,-0.14,0.24,-0.01,-0.01,0.00
3.987,0.06,-0.14,0.24,-0.00,-0.00,0.00
3.987,0.06,-0.14,0.26,-0.00,-0.00,0.00
3.988,0.06,-0.14,0.26,0.00,0.00,0.00
3.988,0.06,-0.14,0.26,0.01,0.00,0.00
3.988,0.07,-0.11,0.28,0.01,0.00,0.00
3.989,0.07,-0.11,0.28,0.01,0.01,0.00
4.002,0.07,-0.11,0.28,0.02,0.02,0.01
4.002,0.06,-0.09,0.28,0.02,0.02,0.01
4.003,0.06,-0.09,0.28,0.02,0.02,0.00
4.003,0.06,-0.09,0.28,0.02,0.02,0.01
4.003,0.05,-0.07,0.29,0.02,0.02,0.01
4.004,0.05,-0.07,0.29,0.03,0.03,0.01
4.004,0.05,-0.07,0.29,0.03,0.04,0.01
4.004,0.04,-0.06,0.25,0.03,0.04,0.01
4.005,0.04,-0.06,0.25,0.04,0.04,0.00
4.005,0.04,-0.06,0.25,0.04,0.05,0.00
4.005,0.03,-0.04,0.24,0.04,0.05,0.00
4.005,0.03,-0.04,0.24,0.05,0.05,0.01
4.009,0.03,-0.04,0.24,0.04,0.05,0.01
4.009,0.04,-0.03,0.20,0.04,0.05,0.01
4.009,0.04,-0.03,0.20,0.05,0.06,0.01
4.012,0.04,-0.03,0.20,0.05,0.06,0.01
4.012,0.03,-0.02,0.17,0.05,0.06,0.01
4.013,0.03,-0.02,0.17,0.05,0.07,0.01
4.015,0.03,-0.02,0.17,0.05,0.07,0.01
4.016,0.03,-0.01,0.12,0.05,0.07,0.01
4.017,0.03,-0.01,0.12,0.05,0.07,0.00
4.019,0.03,-0.01,0.12,0.05,0.08,0.01
4.02,0.02,-0.01,0.06,0.05,0.08,0.01
4.021,0.02,-0.01,0.06,0.05,0.08,0.01
4.023,0.02,-0.01,0.06,0.05,0.08,0.01
4.023,0.02,0.01,0.00,0.05,0.08,0.01
4.026,0.02,0.01,0.00,0.05,0.09,0.01
4.028,0.02,0.01,0.00,0.05,0.09,0.01
4.028,0.01,0.01,-0.04,0.05,0.09,0.01
4.029,0.01,0.01,-0.04,0.04,0.09,0.01
4.032,0.01,0.01,-0.04,0.04,0.09,0.01
4.032,0.02,0.01,-0.07,0.04,0.09,0.01
4.033,0.02,0.01,-0.07,0.04,0.09,0.01
4.035,0.02,0.01,-0.07,0.04,0.09,0.01
4.036,0.01,0.01,-0.08,0.04,0.09,0.01
4.037,0.01,0.01,-0.08,0.04,0.09,0.01
4.039,0.01,0.01,-0.08,0.03,0.09,0.01
4.039,-0.02,-0.00,-0.12,0.03,0.09,0.01
4.041,-0.02,-0.00,-0.12,0.03,0.09,0.01
4.043,-0.02,-0.00,-0.12,0.03,0.08,0.01
4.044,-0.03,-0.01,-0.11,0.03,0.08,0.01
4.045,-0.03,-0.01,-0.11,0.03,0.08,0.01
4.048,-0.03,-0.01,-0.11,0.03,0.08,0.01
4.048,-0.04,-0.02,-0.11,0.03,0.08,0.01
4.049,-0.04,-0.02,-0.11,0.03,0.08,0.01
4.051,-0.04,-0.02,-0.11,0.02,0.07,0.01
4.051,-0.08,-0.02,-0.08,0.02,0.07,0.01
4.053,-0.08,-0.02,-0.08,0.02,0.07,0.01
4.055,-0.08,-0.02,-0.08,0.02,0.06,0.01
4.055,-0.09,-0.02,-0.08,0.02,0.06,0.01
4.057,-0.09,-0.02,-0.08,0.02,0.06,0.02
4.065,-0.09,-0.02,-0.08,0.02,0.06,0.02
4.066,-0.09,-0.03,-0.08,0.02,0.06,0.02
4.066,-0.09,-0.03,-0.08,0.02,0.06,0.02
4.066,-0.09,-0.03,-0.08,0.03,0.06,0.02
4.067,-0.11,-0.01,-0.07,0.03,0.06,0.02
4.067,-0.11,-0.01,-0.07,0.03,0.06,0.02
4.067,-0.11,-0.01,-0.07,0.03,0.06,0.02
