
time,ax,ay,az,wx,wy,wz
0.001,0.22,0.00,0.25,-0.06,-0.07,0.04
0.001,0.22,0.00,0.25,-0.06,-0.07,0.04
0.001,0.14,0.02,0.18,-0.06,-0.07,0.04
0.002,0.05,0.04,0.02,-0.06,-0.07,0.04
0.002,0.05,0.04,0.02,-0.05,-0.04,0.04
0.005,0.05,0.04,0.02,-0.04,-0.02,0.04
0.005,-0.04,0.07,-0.08,-0.04,-0.02,0.04
0.005,-0.04,0.07,-0.08,-0.04,0.01,0.04
0.007,-0.04,0.07,-0.08,-0.03,0.03,0.04
0.007,-0.12,0.08,-0.08,-0.03,0.03,0.04
0.01,-0.12,0.08,-0.08,-0.02,0.05,0.04
0.01,-0.15,0.03,-0.03,-0.02,0.05,0.04
0.01,-0.15,0.03,-0.03,-0.02,0.06,0.04
0.014,-0.15,0.03,-0.03,-0.01,0.07,0.04
0.014,-0.17,0.03,0.07,-0.01,0.07,0.04
0.014,-0.17,0.03,0.07,-0.00,0.07,0.04
0.019,-0.10,-0.06,0.11,-0.00,0.07,0.04
0.019,-0.10,-0.06,0.11,0.01,0.08,0.04
0.022,-0.10,-0.06,0.11,0.01,0.08,0.04
0.022,-0.10,-0.06,0.11,0.02,0.09,0.03
0.022,0.01,-0.13,0.15,0.02,0.09,0.03
0.027,0.01,-0.13,0.15,0.02,0.09,0.03
0.027,0.12,-0.15,0.13,0.02,0.09,0.03
0.03,0.12,-0.15,0.13,0.03,0.10,0.03
0.03,0.15,-0.19,0.13,0.03,0.10,0.03
0.031,0.15,-0.19,0.13,0.03,0.11,0.03
0.034,0.15,-0.19,0.13,0.04,0.12,0.03
0.034,0.15,-0.19,0.13,0.04,0.14,0.03
0.034,0.13,-0.16,0.01,0.04,0.14,0.03
0.039,0.09,-0.14,-0.05,0.04,0.14,0.03
0.039,0.09,-0.14,-0.05,0.04,0.16,0.03
0.043,0.09,-0.14,-0.05,0.03,0.17,0.03
0.043,0.08,-0.05,-0.08,0.03,0.17,0.03
0.043,0.08,-0.05,-0.08,0.03,0.19,0.03
0.046,0.08,-0.05,-0.08,0.03,0.20,0.03
0.047,0.11,-0.04,-0.08,0.03,0.20,0.03
0.05,0.11,-0.04,-0.08,0.02,0.21,0.02
0.051,0.13,-0.04,-0.07,0.02,0.21,0.02
0.051,0.13,-0.04,-0.07,0.02,0.21,0.02
0.054,0.13,-0.04,-0.07,0.02,0.21,0.02
0.055,0.13,-0.07,-0.06,0.02,0.21,0.02
0.055,0.13,-0.07,-0.06,0.02,0.21,0.02
0.059,0.13,-0.07,-0.06,0.02,0.21,0.02
0.059,0.15,-0.07,-0.07,0.02,0.21,0.02
0.063,0.15,-0.07,-0.07,0.02,0.20,0.02
0.063,0.18,-0.08,-0.04,0.02,0.20,0.02
0.063,0.18,-0.08,-0.04,0.01,0.19,0.01
0.067,0.18,-0.08,-0.04,0.01,0.18,0.01
0.068,0.17,-0.08,-0.02,0.01,0.18,0.01
0.07,0.17,-0.08,-0.02,0.01,0.16,0.01
0.07,0.18,-0.05,-0.01,0.01,0.16,0.01
0.071,0.18,-0.05,-0.01,0.01,0.14,0.01
0.075,0.18,-0.05,-0.01,0.02,0.13,0.02
0.075,0.18,-0.05,-0.01,0.02,0.11,0.02
0.076,0.14,-0.06,-0.01,0.02,0.11,0.02
0.079,0.14,-0.06,-0.01,0.02,0.09,0.02
0.079,0.11,-0.09,-0.01,0.02,0.09,0.02
0.085,0.11,-0.09,-0.01,0.03,0.09,0.02
0.085,0.11,-0.09,-0.01,0.03,0.08,0.03
0.085,0.07,-0.06,-0.06,0.03,0.08,0.03
0.087,0.07,-0.06,-0.06,0.04,0.08,0.03
0.087,0.08,-0.10,-0.07,0.04,0.08,0.03
0.09,0.08,-0.10,-0.07,0.04,0.08,0.03
0.091,0.02,-0.15,-0.09,0.04,0.08,0.03
0.091,0.02,-0.15,-0.09,0.05,0.08,0.04
0.093,0.02,-0.15,-0.09,0.05,0.08,0.04
0.095,-0.02,-0.18,-0.06,0.05,0.08,0.04
0.096,-0.02,-0.18,-0.06,0.06,0.09,0.04
0.099,-0.02,-0.23,-0.00,0.06,0.09,0.04
0.1,-0.02,-0.23,-0.00,0.07,0.09,0.04
0.103,-0.02,-0.20,0.11,0.07,0.09,0.04
0.106,-0.02,-0.20,0.11,0.08,0.10,0.05
0.106,-0.02,-0.20,0.11,0.09,0.10,0.05
0.106,-0.02,-0.20,0.11,0.10,0.11,0.05
0.107,-0.00,-0.20,0.22,0.10,0.11,0.05
0.111,-0.00,-0.20,0.22,0.12,0.12,0.05
0.114,-0.00,-0.20,0.22,0.13,0.13,0.05
0.114,0.01,-0.14,0.32,0.13,0.13,0.05
0.114,0.01,-0.14,0.32,0.15,0.15,0.05
0.141,0.01,-0.14,0.32,0.16,0.16,0.05
0.141,-0.08,-0.09,0.38,0.16,0.16,0.05
0.141,-0.08,-0.09,0.38,0.17,0.16,0.05
0.141,-0.08,-0.07,0.42,0.17,0.16,0.05
0.142,-0.08,-0.07,0.42,0.18,0.16,0.05
0.142,-0.07,-0.08,0.44,0.18,0.16,0.05
0.142,-0.07,-0.08,0.44,0.19,0.16,0.04
0.142,-0.07,-0.08,0.44,0.20,0.16,0.04
0.142,-0.03,-0.08,0.40,0.20,0.16,0.04
0.143,-0.03,-0.08,0.40,0.21,0.16,0.04
0.143,0.00,-0.07,0.34,0.21,0.16,0.04
0.143,0.00,-0.07,0.34,0.21,0.16,0.04
0.143,0.00,-0.07,0.34,0.21,0.16,0.04
0.144,0.00,-0.07,0.34,0.21,0.17,0.04
0.144,-0.09,-0.10,0.22,0.21,0.17,0.04
0.144,-0.06,-0.12,0.07,0.21,0.17,0.04
0.144,-0.06,-0.12,0.07,0.20,0.17,0.04
0.144,-0.06,-0.12,0.07,0.20,0.18,0.03
0.148,0.01,-0.13,-0.08,0.20,0.18,0.03
0.148,0.01,-0.13,-0.08,0.19,0.18,0.03
0.149,0.05,-0.19,-0.18,0.19,0.18,0.03
0.161,0.05,-0.19,-0.18,0.18,0.19,0.03
0.161,0.04,-0.24,-0.27,0.18,0.19,0.03
0.161,0.04,-0.24,-0.27,0.16,0.19,0.03
0.162,0.04,-0.24,-0.27,0.15,0.18,0.02
0.162,-0.02,-0.24,-0.30,0.15,0.18,0.02
0.162,-0.02,-0.24,-0.30,0.14,0.18,0.02
0.162,-0.02,-0.24,-0.30,0.13,0.17,0.03
0.162,-0.02,-0.24,-0.30,0.12,0.17,0.03
0.162,-0.07,-0.22,-0.29,0.12,0.17,0.03
0.163,-0.07,-0.22,-0.29,0.12,0.17,0.03
0.166,-0.08,-0.21,-0.23,0.12,0.17,0.03
0.166,-0.08,-0.21,-0.23,0.11,0.18,0.03
0.169,-0.09,-0.25,-0.14,0.11,0.18,0.03
0.169,-0.09,-0.25,-0.14,0.11,0.18,0.04
0.17,-0.09,-0.25,-0.14,0.11,0.19,0.04
0.172,-0.09,-0.25,-0.14,0.12,0.20,0.04
0.173,-0.10,-0.27,-0.12,0.12,0.20,0.04
0.173,-0.10,-0.27,-0.12,0.11,0.21,0.04
0.177,-0.11,-0.28,-0.07,0.11,0.21,0.04
0.177,-0.11,-0.28,-0.07,0.12,0.22,0.04
0.181,-0.08,-0.28,-0.04,0.12,0.22,0.04
0.181,-0.08,-0.28,-0.04,0.13,0.23,0.04
0.181,-0.08,-0.28,-0.04,0.13,0.23,0.04
0.184,-0.06,-0.22,0.01,0.13,0.23,0.04
0.185,-0.06,-0.22,0.01,0.14,0.24,0.03
0.185,-0.06,-0.22,0.01,0.15,0.24,0.03
0.188,0.01,-0.17,0.12,0.15,0.24,0.03
0.188,0.01,-0.17,0.12,0.16,0.25,0.02
0.192,0.02,-0.09,0.13,0.16,0.25,0.02
0.193,0.02,-0.09,0.13,0.17,0.26,0.01
0.193,0.02,-0.09,0.13,0.18,0.27,0.01
0.197,-0.02,-0.10,0.10,0.18,0.27,0.01
0.197,-0.02,-0.10,0.10,0.18,0.28,0.01
0.201,-0.02,-0.10,0.10,0.19,0.30,-0.00
0.201,-0.02,-0.08,0.06,0.19,0.30,-0.00
0.201,-0.02,-0.08,0.06,0.20,0.31,-0.00
0.205,-0.02,-0.08,0.06,0.20,0.31,-0.01
0.205,0.00,-0.07,0.02,0.20,0.31,-0.01
0.209,-0.03,-0.06,-0.01,0.20,0.31,-0.01
0.209,-0.03,-0.06,-0.01,0.21,0.32,-0.01
0.209,-0.03,-0.06,-0.01,0.21,0.32,-0.01
0.213,-0.03,-0.06,-0.01,0.21,0.32,-0.02
0.213,0.02,-0.08,-0.04,0.21,0.32,-0.02
0.213,0.02,-0.08,-0.04,0.21,0.31,-0.02
0.218,0.02,-0.03,-0.09,0.21,0.31,-0.02
0.218,0.02,-0.03,-0.09,0.21,0.30,-0.02
0.221,0.02,-0.03,-0.09,0.21,0.29,-0.03
0.221,0.02,-0.02,-0.12,0.21,0.29,-0.03
0.221,0.02,-0.02,-0.12,0.21,0.28,-0.03
0.225,0.02,-0.02,-0.12,0.21,0.27,-0.02
0.225,-0.03,-0.04,-0.14,0.21,0.27,-0.02
0.229,-0.07,-0.09,-0.19,0.21,0.27,-0.02
0.229,-0.07,-0.09,-0.19,0.21,0.26,-0.02
0.229,-0.07,-0.09,-0.19,0.21,0.26,-0.02
0.233,-0.02,-0.11,-0.21,0.21,0.26,-0.02
0.233,-0.02,-0.11,-0.21,0.21,0.25,-0.02
0.233,-0.02,-0.11,-0.21,0.20,0.24,-0.01
0.237,0.02,-0.09,-0.22,0.20,0.24,-0.01
0.237,0.02,-0.09,-0.22,0.20,0.22,-0.01
0.241,0.02,-0.09,-0.22,0.20,0.21,-0.01
0.241,0.01,-0.07,-0.20,0.20,0.21,-0.01
0.242,0.01,-0.07,-0.20,0.19,0.20,-0.00
0.245,0.01,-0.07,-0.20,0.19,0.18,0.00
0.246,-0.06,-0.08,-0.21,0.19,0.18,0.00
0.249,-0.09,-0.07,-0.24,0.19,0.18,0.00
0.249,-0.09,-0.07,-0.24,0.19,0.16,0.01
0.249,-0.09,-0.07,-0.24,0.18,0.14,0.01
0.252,-0.16,-0.09,-0.26,0.18,0.14,0.01
0.253,-0.16,-0.09,-0.26,0.18,0.12,0.02
0.254,-0.16,-0.09,-0.26,0.17,0.10,0.03
0.257,-0.22,-0.17,-0.37,0.17,0.10,0.03
0.258,-0.22,-0.17,-0.37,0.17,0.07,0.03
0.261,-0.22,-0.17,-0.37,0.16,0.04,0.04
0.262,-0.19,-0.21,-0.38,0.16,0.04,0.04
0.262,-0.19,-0.21,-0.38,0.15,0.02,0.04
0.265,-0.19,-0.21,-0.38,0.15,-0.01,0.04
0.265,-0.17,-0.27,-0.34,0.15,-0.01,0.04
0.268,-0.14,-0.31,-0.32,0.15,-0.01,0.04
0.269,-0.14,-0.31,-0.32,0.15,-0.04,0.04
0.293,-0.14,-0.31,-0.32,0.15,-0.07,0.04
0.293,-0.11,-0.31,-0.26,0.15,-0.07,0.04
0.293,-0.11,-0.31,-0.26,0.15,-0.09,0.03
0.294,-0.11,-0.31,-0.26,0.16,-0.12,0.03
0.294,-0.10,-0.27,-0.20,0.16,-0.12,0.03
0.294,-0.10,-0.27,-0.20,0.17,-0.14,0.02
0.294,-0.10,-0.27,-0.20,0.18,-0.16,0.01
0.294,-0.07,-0.21,-0.06,0.18,-0.16,0.01
0.295,-0.07,-0.21,-0.06,0.20,-0.17,0.01
0.295,-0.07,-0.21,-0.06,0.22,-0.17,-0.00
0.295,0.03,-0.18,0.10,0.22,-0.17,-0.00
0.295,0.09,-0.09,0.31,0.22,-0.17,-0.00
0.295,0.09,-0.09,0.31,0.24,-0.17,-0.01
0.296,0.09,-0.09,0.31,0.26,-0.17,-0.03
0.296,0.23,-0.05,0.41,0.26,-0.17,-0.03
0.296,0.23,-0.05,0.41,0.29,-0.16,-0.04
0.296,0.23,-0.05,0.41,0.31,-0.15,-0.05
0.296,0.28,-0.06,0.50,0.31,-0.15,-0.05
0.297,0.28,-0.06,0.50,0.34,-0.13,-0.06
0.299,0.21,-0.01,0.50,0.34,-0.13,-0.06
0.299,0.21,-0.01,0.50,0.36,-0.10,-0.07
0.311,0.21,-0.01,0.50,0.38,-0.08,-0.08
0.312,0.19,-0.01,0.52,0.38,-0.08,-0.08
0.312,0.19,-0.01,0.52,0.40,-0.06,-0.09
0.312,0.19,-0.01,0.52,0.42,-0.04,-0.09
0.312,0.18,0.01,0.48,0.42,-0.04,-0.09
0.312,0.18,0.01,0.48,0.43,-0.02,-0.09
0.312,0.20,0.02,0.39,0.43,-0.02,-0.09
0.312,0.20,0.02,0.39,0.44,0.00,-0.10
0.314,0.20,0.02,0.39,0.44,0.02,-0.10
0.315,0.20,0.02,0.39,0.45,0.03,-0.10
0.315,0.21,-0.04,0.24,0.45,0.03,-0.10
0.319,0.21,-0.04,0.24,0.44,0.05,-0.10
0.32,0.29,-0.06,0.18,0.44,0.05,-0.10
0.322,0.32,-0.10,0.14,0.44,0.05,-0.10
0.328,0.16,-0.08,0.14,0.44,0.05,-0.10
0.329,0.16,-0.08,0.14,0.44,0.06,-0.10
0.329,0.16,-0.08,0.14,0.44,0.07,-0.10
0.329,0.16,-0.08,0.14,0.43,0.08,-0.09
0.33,0.16,-0.08,0.14,0.43,0.08,-0.09
0.33,0.06,-0.06,0.11,0.43,0.08,-0.09
0.331,0.06,-0.06,0.11,0.42,0.09,-0.08
0.336,0.06,-0.06,0.11,0.41,0.10,-0.07
0.336,-0.03,-0.05,0.09,0.41,0.10,-0.07
0.338,-0.03,-0.05,0.09,0.40,0.11,-0.06
0.339,-0.03,-0.05,0.09,0.40,0.13,-0.05
0.339,-0.08,-0.01,0.10,0.40,0.13,-0.05
0.343,-0.08,-0.01,0.10,0.39,0.14,-0.04
0.343,-0.08,-0.01,0.10,0.38,0.16,-0.04
0.343,-0.04,0.03,0.10,0.38,0.16,-0.04
0.347,-0.04,0.03,0.10,0.37,0.17,-0.03
0.348,0.01,0.12,0.14,0.37,0.17,-0.03
0.35,0.01,0.12,0.14,0.37,0.17,-0.03
0.352,0.01,0.18,0.19,0.37,0.17,-0.03
0.352,0.01,0.18,0.19,0.36,0.17,-0.02
0.355,0.01,0.18,0.19,0.35,0.17,-0.02
0.355,-0.03,0.20,0.19,0.35,0.17,-0.02
0.364,-0.03,0.20,0.19,0.35,0.17,-0.02
0.364,-0.03,0.20,0.19,0.34,0.18,-0.01
0.364,-0.04,0.22,0.14,0.34,0.18,-0.01
0.364,-0.04,0.22,0.14,0.33,0.18,-0.01
0.365,-0.10,0.19,0.11,0.33,0.18,-0.01
0.365,-0.10,0.19,0.11,0.33,0.18,-0.01
0.367,-0.16,0.25,0.08,0.33,0.18,-0.01
0.367,-0.16,0.25,0.08,0.32,0.19,-0.00
0.373,-0.16,0.25,0.08,0.31,0.19,0.00
0.374,-0.20,0.19,-0.01,0.31,0.19,0.00
0.374,-0.20,0.19,-0.01,0.30,0.19,0.00
0.376,-0.20,0.19,-0.01,0.29,0.19,0.00
0.376,-0.22,0.17,-0.10,0.29,0.19,0.00
0.379,-0.22,0.17,-0.10,0.28,0.18,0.00
0.379,-0.22,0.17,-0.10,0.27,0.17,0.00
0.379,-0.19,0.14,-0.22,0.27,0.17,0.00
0.383,-0.19,0.14,-0.22,0.26,0.15,-0.00
0.383,-0.23,0.08,-0.29,0.26,0.15,-0.00
0.383,-0.23,0.08,-0.29,0.24,0.13,-0.01
0.388,-0.22,0.08,-0.34,0.24,0.13,-0.01
0.388,-0.22,0.08,-0.34,0.24,0.11,-0.01
0.391,-0.22,0.08,-0.34,0.23,0.10,-0.01
0.391,-0.22,0.08,-0.34,0.22,0.07,-0.01
0.392,-0.25,-0.02,-0.32,0.22,0.07,-0.01
0.395,-0.25,-0.02,-0.32,0.22,0.05,-0.02
0.395,-0.24,-0.12,-0.31,0.22,0.05,-0.02
0.396,-0.24,-0.12,-0.31,0.21,0.04,-0.02
0.399,-0.24,-0.12,-0.31,0.21,0.01,-0.03
0.4,-0.18,-0.15,-0.29,0.21,0.01,-0.03
0.403,-0.20,-0.22,-0.35,0.21,0.01,-0.03
0.403,-0.20,-0.22,-0.35,0.21,-0.00,-0.03
0.404,-0.20,-0.22,-0.35,0.21,-0.02,-0.04
0.408,-0.22,-0.30,-0.37,0.21,-0.02,-0.04
0.408,-0.22,-0.30,-0.37,0.21,-0.03,-0.04
0.411,-0.22,-0.30,-0.37,0.20,-0.05,-0.04
0.411,-0.27,-0.33,-0.45,0.20,-0.05,-0.04
0.412,-0.27,-0.33,-0.45,0.20,-0.06,-0.04
0.415,-0.27,-0.33,-0.45,0.21,-0.08,-0.05
0.415,-0.25,-0.36,-0.47,0.21,-0.08,-0.05
0.422,-0.25,-0.36,-0.47,0.21,-0.09,-0.05
0.422,-0.25,-0.36,-0.47,0.21,-0.11,-0.05
0.423,-0.26,-0.34,-0.49,0.21,-0.11,-0.05
0.423,-0.26,-0.34,-0.49,0.21,-0.13,-0.05
0.423,-0.26,-0.34,-0.49,0.21,-0.16,-0.06
0.447,-0.29,-0.37,-0.47,0.21,-0.16,-0.06
0.447,-0.30,-0.33,-0.40,0.21,-0.16,-0.06
0.447,-0.30,-0.33,-0.40,0.22,-0.19,-0.06
0.447,-0.30,-0.33,-0.40,0.22,-0.21,-0.06
0.447,-0.30,-0.33,-0.40,0.23,-0.23,-0.07
0.448,-0.28,-0.33,-0.29,0.23,-0.23,-0.07
0.448,-0.28,-0.33,-0.29,0.25,-0.25,-0.08
0.448,-0.26,-0.33,-0.16,0.25,-0.25,-0.08
0.448,-0.26,-0.33,-0.16,0.26,-0.26,-0.08
0.448,-0.26,-0.33,-0.16,0.28,-0.27,-0.10
0.448,-0.21,-0.32,-0.02,0.28,-0.27,-0.10
0.448,-0.21,-0.32,-0.02,0.30,-0.27,-0.11
0.448,-0.13,-0.29,0.14,0.30,-0.27,-0.11
0.449,-0.13,-0.29,0.14,0.32,-0.27,-0.12
0.449,-0.13,-0.29,0.14,0.34,-0.26,-0.14
0.449,0.03,-0.26,0.27,0.34,-0.26,-0.14
0.451,0.03,-0.26,0.27,0.37,-0.25,-0.16
0.451,0.15,-0.26,0.44,0.37,-0.25,-0.16
0.452,0.15,-0.26,0.44,0.40,-0.23,-0.17
0.455,0.15,-0.26,0.44,0.42,-0.21,-0.18
0.466,0.20,-0.31,0.56,0.42,-0.21,-0.18
0.466,0.20,-0.31,0.56,0.45,-0.18,-0.19
0.466,0.20,-0.31,0.56,0.47,-0.16,-0.20
0.466,0.13,-0.32,0.56,0.47,-0.16,-0.20
0.467,0.13,-0.32,0.56,0.50,-0.14,-0.20
0.467,0.13,-0.32,0.56,0.51,-0.12,-0.20
0.467,-0.06,-0.32,0.52,0.51,-0.12,-0.20
0.467,-0.25,-0.25,0.34,0.51,-0.12,-0.20
0.467,-0.25,-0.25,0.34,0.52,-0.11,-0.19
0.472,-0.25,-0.25,0.34,0.53,-0.10,-0.19
0.473,-0.25,-0.25,0.34,0.54,-0.09,-0.20
0.473,-0.10,-0.20,0.29,0.54,-0.09,-0.20
0.474,-0.10,-0.20,0.29,0.55,-0.09,-0.21
0.474,0.20,-0.22,0.28,0.55,-0.09,-0.21
0.478,0.20,-0.22,0.28,0.56,-0.09,-0.21
0.479,0.20,-0.22,0.28,0.56,-0.08,-0.22
0.479,0.36,-0.33,0.34,0.56,-0.08,-0.22
0.484,0.36,-0.44,0.31,0.56,-0.08,-0.22
0.485,0.36,-0.44,0.31,0.57,-0.08,-0.22
0.485,0.36,-0.44,0.31,0.57,-0.06,-0.22
0.487,0.36,-0.44,0.31,0.57,-0.05,-0.22
0.487,0.23,-0.46,0.25,0.57,-0.05,-0.22
0.491,0.23,-0.46,0.25,0.56,-0.04,-0.22
0.491,0.15,-0.46,0.13,0.56,-0.04,-0.22
0.492,0.15,-0.46,0.13,0.55,-0.03,-0.21
0.493,0.15,-0.46,0.13,0.54,-0.02,-0.20
0.495,0.05,-0.45,-0.02,0.54,-0.02,-0.20
0.497,0.05,-0.45,-0.02,0.53,-0.02,-0.19
0.499,0.05,-0.45,-0.02,0.52,-0.02,-0.19
0.499,0.01,-0.40,-0.09,0.52,-0.02,-0.19
0.502,0.01,-0.40,-0.09,0.50,-0.02,-0.19
0.503,0.11,-0.35,-0.11,0.50,-0.02,-0.19
0.503,0.11,-0.35,-0.11,0.49,-0.03,-0.19
0.507,0.16,-0.35,-0.07,0.49,-0.03,-0.19
0.507,0.16,-0.35,-0.07,0.48,-0.05,-0.19
0.511,0.16,-0.35,-0.07,0.46,-0.07,-0.18
0.511,0.06,-0.39,-0.05,0.46,-0.07,-0.18
0.511,0.06,-0.39,-0.05,0.46,-0.09,-0.19
0.515,0.06,-0.39,-0.05,0.45,-0.12,-0.19
0.515,0.11,-0.42,-0.07,0.45,-0.12,-0.19
0.52,0.11,-0.42,-0.07,0.43,-0.15,-0.19
0.52,0.11,-0.42,-0.07,0.42,-0.18,-0.20
0.52,0.07,-0.42,-0.09,0.42,-0.18,-0.20
0.523,0.07,-0.42,-0.09,0.41,-0.21,-0.20
0.524,0.07,-0.42,-0.09,0.41,-0.24,-0.21
0.524,-0.04,-0.41,-0.17,0.41,-0.24,-0.21
0.527,0.01,-0.45,-0.12,0.41,-0.24,-0.21
0.527,0.01,-0.45,-0.12,0.40,-0.27,-0.22
0.531,0.01,-0.45,-0.12,0.40,-0.30,-0.23
0.531,0.03,-0.53,-0.04,0.40,-0.30,-0.23
0.531,0.03,-0.53,-0.04,0.40,-0.33,-0.24
0.539,0.03,-0.53,-0.04,0.40,-0.36,-0.25
0.539,-0.12,-0.61,-0.02,0.40,-0.36,-0.25
0.54,-0.12,-0.61,-0.02,0.41,-0.40,-0.26
0.54,-0.02,-0.71,0.01,0.41,-0.40,-0.26
0.54,-0.02,-0.71,0.01,0.42,-0.44,-0.28
0.544,-0.13,-0.83,0.01,0.42,-0.44,-0.28
0.544,-0.13,-0.83,0.01,0.42,-0.48,-0.29
0.545,-0.13,-0.83,0.01,0.43,-0.52,-0.31
0.548,-0.07,-0.87,0.01,0.43,-0.52,-0.31
0.548,-0.07,-0.87,0.01,0.44,-0.56,-0.33
0.551,-0.07,-0.87,0.01,0.45,-0.59,-0.36
0.551,0.14,-0.95,0.07,0.45,-0.59,-0.36
0.552,0.14,-0.95,0.07,0.47,-0.63,-0.38
0.556,0.14,-0.95,0.07,0.48,-0.67,-0.42
0.557,0.22,-1.00,0.11,0.48,-0.67,-0.42
0.559,0.22,-1.00,0.11,0.50,-0.70,-0.45
0.559,0.36,-0.97,0.12,0.50,-0.70,-0.45
0.56,0.36,-0.97,0.12,0.51,-0.72,-0.48
0.564,0.36,-0.97,0.12,0.53,-0.73,-0.52
0.564,0.36,-0.97,0.12,0.54,-0.74,-0.55
0.564,0.37,-0.90,-0.00,0.54,-0.74,-0.55
0.568,0.37,-0.90,-0.00,0.55,-0.74,-0.57
0.568,0.36,-0.77,-0.14,0.55,-0.74,-0.57
0.571,0.36,-0.77,-0.14,0.56,-0.74,-0.60
0.572,0.14,-0.64,-0.27,0.56,-0.74,-0.60
0.572,0.14,-0.64,-0.27,0.56,-0.73,-0.62
0.575,0.14,-0.64,-0.27,0.57,-0.72,-0.63
0.576,0.09,-0.50,-0.27,0.57,-0.72,-0.63
0.602,0.09,-0.50,-0.27,0.58,-0.71,-0.64
0.602,0.09,-0.50,-0.27,0.58,-0.71,-0.66
0.602,-0.00,-0.40,-0.28,0.58,-0.71,-0.66
0.603,-0.00,-0.40,-0.28,0.58,-0.71,-0.66
0.603,-0.03,-0.27,-0.34,0.58,-0.71,-0.66
0.603,-0.03,-0.27,-0.34,0.59,-0.70,-0.67
0.603,-0.15,-0.24,-0.38,0.59,-0.70,-0.67
0.604,-0.15,-0.24,-0.38,0.59,-0.70,-0.68
0.604,-0.15,-0.24,-0.38,0.59,-0.71,-0.69
0.604,-0.06,-0.22,-0.26,0.59,-0.71,-0.69
0.604,-0.06,-0.22,-0.26,0.60,-0.71,-0.69
0.604,-0.06,-0.22,-0.26,0.61,-0.72,-0.70
0.604,-0.12,-0.24,-0.12,0.61,-0.72,-0.70
0.605,-0.12,-0.24,-0.12,0.62,-0.73,-0.71
0.605,-0.13,-0.26,0.02,0.62,-0.73,-0.71
0.605,-0.13,-0.26,0.02,0.64,-0.74,-0.72
0.605,-0.08,-0.30,0.11,0.64,-0.74,-0.72
0.605,-0.08,-0.30,0.11,0.65,-0.75,-0.73
0.605,-0.08,-0.30,0.11,0.67,-0.75,-0.75
0.608,-0.03,-0.34,0.14,0.67,-0.75,-0.75
0.608,-0.03,-0.34,0.14,0.69,-0.75,-0.76
0.621,-0.03,-0.34,0.14,0.70,-0.75,-0.77
0.622,-0.01,-0.30,0.18,0.70,-0.75,-0.77
0.622,-0.01,-0.30,0.18,0.72,-0.75,-0.78
0.622,-0.01,-0.30,0.18,0.73,-0.75,-0.80
0.622,0.17,-0.20,0.18,0.73,-0.75,-0.80
0.622,0.17,-0.20,0.18,0.74,-0.75,-0.81
0.623,0.17,-0.20,0.18,0.76,-0.74,-0.83
0.623,0.24,-0.08,0.14,0.76,-0.74,-0.83
0.626,0.24,-0.08,0.14,0.77,-0.73,-0.84
0.626,0.25,0.07,0.14,0.77,-0.73,-0.84
0.626,0.25,0.07,0.14,0.78,-0.72,-0.85
0.628,0.33,0.18,0.16,0.78,-0.72,-0.85
0.629,0.33,0.18,0.16,0.79,-0.71,-0.86
0.63,0.33,0.18,0.16,0.80,-0.69,-0.87
0.63,0.33,0.18,0.16,0.81,-0.68,-0.88
0.631,0.55,0.27,0.22,0.81,-0.68,-0.88
0.635,0.55,0.27,0.22,0.82,-0.68,-0.89
0.638,0.75,0.31,0.27,0.82,-0.68,-0.89
0.64,0.75,0.31,0.27,0.83,-0.67,-0.90
0.64,0.92,0.37,0.34,0.83,-0.67,-0.90
0.64,0.92,0.37,0.34,0.83,-0.67,-0.90
0.643,0.92,0.37,0.34,0.84,-0.66,-0.91
0.644,0.92,0.37,0.34,0.85,-0.65,-0.91
0.644,0.97,0.36,0.28,0.85,-0.65,-0.91
0.647,0.99,0.40,0.15,0.85,-0.65,-0.91
0.647,0.99,0.40,0.15,0.85,-0.62,-0.91
0.65,0.99,0.40,0.15,0.85,-0.60,-0.91
0.65,0.92,0.43,0.13,0.85,-0.60,-0.91
0.651,0.92,0.43,0.13,0.86,-0.56,-0.91
0.655,0.92,0.43,0.13,0.86,-0.52,-0.90
0.656,0.93,0.45,0.33,0.86,-0.52,-0.90
0.659,0.93,0.45,0.33,0.88,-0.46,-0.90
0.659,0.93,0.45,0.33,0.90,-0.41,-0.89
0.66,1.07,0.36,0.66,0.90,-0.41,-0.89
0.663,1.07,0.36,0.66,0.92,-0.38,-0.88
0.663,1.07,0.36,0.66,0.94,-0.36,-0.86
0.663,0.79,0.37,0.54,0.94,-0.36,-0.86
0.667,0.57,0.41,0.46,0.94,-0.36,-0.86
0.667,0.57,0.41,0.46,0.95,-0.34,-0.85
0.67,0.57,0.41,0.46,0.96,-0.34,-0.83
0.671,0.54,0.47,0.34,0.96,-0.34,-0.83
0.671,0.54,0.47,0.34,0.97,-0.34,-0.81
0.675,0.54,0.47,0.34,0.97,-0.35,-0.80
0.675,0.55,0.51,0.15,0.97,-0.35,-0.80
0.679,0.55,0.51,0.15,0.97,-0.36,-0.79
0.68,0.56,0.58,-0.02,0.97,-0.36,-0.79
0.68,0.56,0.58,-0.02,0.97,-0.38,-0.78
0.683,0.56,0.58,-0.02,0.96,-0.40,-0.77
0.683,0.53,0.58,-0.22,0.96,-0.40,-0.77
0.683,0.53,0.58,-0.22,0.96,-0.43,-0.77
0.687,0.53,0.58,-0.22,0.95,-0.46,-0.77
0.688,0.51,0.64,-0.28,0.95,-0.46,-0.77
0.693,0.51,0.64,-0.28,0.94,-0.48,-0.77
0.693,0.47,0.70,-0.33,0.94,-0.48,-0.77
0.694,0.47,0.70,-0.33,0.93,-0.52,-0.77
0.694,0.47,0.70,-0.33,0.92,-0.55,-0.76
0.696,0.40,0.72,-0.42,0.92,-0.55,-0.76
0.696,0.40,0.72,-0.42,0.90,-0.58,-0.77
0.699,0.40,0.72,-0.42,0.89,-0.61,-0.77
0.699,0.34,0.76,-0.49,0.89,-0.61,-0.77
0.705,0.26,0.71,-0.59,0.89,-0.61,-0.77
0.706,0.26,0.71,-0.59,0.87,-0.65,-0.77
0.706,0.26,0.71,-0.59,0.85,-0.69,-0.77
0.707,0.22,0.71,-0.74,0.85,-0.69,-0.77
0.708,0.22,0.71,-0.74,0.82,-0.73,-0.78
0.711,0.22,0.71,-0.74,0.80,-0.76,-0.78
0.711,0.16,0.64,-0.88,0.80,-0.76,-0.78
0.711,0.16,0.64,-0.88,0.77,-0.79,-0.79
0.715,0.16,0.64,-0.88,0.74,-0.82,-0.80
0.715,0.14,0.59,-0.94,0.74,-0.82,-0.80
0.719,0.14,0.59,-0.94,0.72,-0.84,-0.82
0.72,0.14,0.59,-0.94,0.69,-0.86,-0.83
0.72,0.02,0.56,-1.01,0.69,-0.86,-0.83
0.723,0.02,0.56,-1.01,0.65,-0.88,-0.84
0.724,0.02,0.56,-1.01,0.61,-0.90,-0.84
0.724,-0.02,0.56,-1.18,0.61,-0.90,-0.84
0.728,-0.17,0.49,-1.49,0.61,-0.90,-0.84
0.728,-0.17,0.49,-1.49,0.57,-0.91,-0.84
0.731,-0.17,0.49,-1.49,0.52,-0.93,-0.84
0.731,-0.44,0.41,-1.64,0.52,-0.93,-0.84
0.732,-0.44,0.41,-1.64,0.47,-0.98,-0.83
0.758,-0.44,0.41,-1.64,0.41,-1.06,-0.81
0.758,-0.74,0.01,-2.01,0.41,-1.06,-0.81
0.758,-0.74,0.01,-2.01,0.35,-1.15,-0.78
0.758,-0.74,0.01,-2.01,0.27,-1.31,-0.72
0.759,-1.25,-0.32,-2.05,0.27,-1.31,-0.72
0.759,-2.05,-1.37,-2.36,0.27,-1.31,-0.72
0.759,-2.05,-1.37,-2.36,0.20,-1.50,-0.65
0.759,-2.05,-1.37,-2.36,0.14,-1.67,-0.57
0.759,-2.25,-1.51,-1.75,0.14,-1.67,-0.57
0.76,-2.25,-1.51,-1.75,0.09,-1.82,-0.50
0.76,-2.25,-1.51,-1.75,0.05,-1.96,-0.43
0.76,-2.25,-1.51,-1.75,0.01,-2.08,-0.37
0.76,-2.16,-1.63,-1.14,0.01,-2.08,-0.37
0.761,-2.16,-1.63,-1.14,-0.01,-2.19,-0.32
0.761,-1.76,-1.54,-0.65,-0.01,-2.19,-0.32
0.761,-1.76,-1.54,-0.65,-0.03,-2.29,-0.28
0.761,-1.76,-1.54,-0.65,-0.06,-2.37,-0.25
0.761,-1.26,-1.44,-0.47,-0.06,-2.37,-0.25
0.765,-0.75,-1.14,-0.35,-0.06,-2.37,-0.25
0.778,-0.75,-1.14,-0.35,-0.08,-2.45,-0.22
0.778,-0.75,-1.14,-0.35,-0.09,-2.50,-0.20
0.779,-0.46,-0.67,-0.22,-0.09,-2.50,-0.20
0.779,-0.46,-0.67,-0.22,-0.11,-2.54,-0.18
0.779,-0.46,-0.67,-0.22,-0.12,-2.57,-0.16
0.779,-0.49,-0.11,-0.14,-0.12,-2.57,-0.16
0.779,-0.49,-0.11,-0.14,-0.13,-2.58,-0.13
0.779,-0.49,-0.11,-0.14,-0.14,-2.58,-0.10
0.779,-0.61,0.48,-0.03,-0.14,-2.58,-0.10
0.779,-0.61,0.48,-0.03,-0.14,-2.58,-0.07
0.78,-0.61,0.48,-0.03,-0.15,-2.57,-0.04
0.78,-0.66,0.96,0.14,-0.15,-2.57,-0.04
0.783,-0.66,0.96,0.14,-0.15,-2.56,-0.02
0.783,-0.66,0.96,0.14,-0.15,-2.53,-0.01
0.783,-0.47,1.30,0.24,-0.15,-2.53,-0.01
0.787,-0.47,1.30,0.24,-0.14,-2.50,0.00
0.788,-0.16,1.40,0.35,-0.14,-2.50,0.00
0.79,-0.16,1.40,0.35,-0.14,-2.46,-0.00
0.792,-0.16,1.40,0.35,-0.12,-2.43,-0.01
0.792,0.05,1.40,0.54,-0.12,-2.43,-0.01
0.794,0.05,1.40,0.54,-0.11,-2.39,-0.01
0.795,-0.13,1.44,0.84,-0.11,-2.39,-0.01
0.798,-0.13,1.44,0.84,-0.09,-2.35,-0.01
0.799,-0.13,1.44,0.84,-0.07,-2.32,-0.01
0.799,-0.54,1.50,1.19,-0.07,-2.32,-0.01
0.803,-0.54,1.50,1.19,-0.04,-2.28,-0.01
0.803,-0.88,1.47,1.46,-0.04,-2.28,-0.01
0.807,-0.88,1.47,1.46,-0.01,-2.23,-0.01
0.807,-0.92,1.46,1.68,-0.01,-2.23,-0.01
0.807,-0.92,1.46,1.68,0.03,-2.17,-0.01
0.811,-0.92,1.46,1.68,0.06,-2.11,-0.01
0.811,-0.92,1.46,1.68,0.09,-2.05,-0.01
0.811,-1.02,1.47,1.78,0.09,-2.05,-0.01
0.815,-1.02,1.47,1.78,0.13,-1.98,-0.01
0.816,-1.48,1.57,1.85,0.13,-1.98,-0.01
0.819,-1.48,1.57,1.85,0.16,-1.91,-0.00
0.819,-1.75,1.60,1.93,0.16,-1.91,-0.00
0.822,-1.75,1.60,1.93,0.19,-1.82,0.00
0.823,-1.75,1.60,1.93,0.22,-1.73,0.01
0.823,-1.75,1.60,1.93,0.25,-1.63,0.01
0.824,-1.90,1.64,1.86,0.25,-1.63,0.01
0.827,-1.90,1.64,1.86,0.27,-1.52,0.02
0.827,-2.07,1.66,1.71,0.27,-1.52,0.02
0.83,-2.07,1.66,1.71,0.29,-1.41,0.03
0.831,-2.14,1.67,1.52,0.29,-1.41,0.03
0.831,-2.14,1.67,1.52,0.30,-1.29,0.03
0.835,-2.14,1.67,1.52,0.32,-1.17,0.03
0.835,-2.06,1.66,1.29,0.32,-1.17,0.03
0.839,-2.06,1.66,1.29,0.32,-1.05,0.03
0.839,-1.95,1.66,1.08,0.32,-1.05,0.03
0.84,-1.95,1.66,1.08,0.32,-0.94,0.02
0.843,-1.95,1.66,1.08,0.32,-0.82,0.02
0.843,-1.81,1.63,0.82,0.32,-0.82,0.02
0.843,-1.81,1.63,0.82,0.31,-0.71,0.00
0.847,-1.34,1.60,0.57,0.31,-0.71,0.00
0.847,-1.34,1.60,0.57,0.29,-0.59,-0.02
0.851,-1.34,1.60,0.57,0.27,-0.49,-0.06
0.851,-0.75,1.53,0.29,0.27,-0.49,-0.06
0.851,-0.75,1.53,0.29,0.25,-0.38,-0.10
0.855,-0.75,1.53,0.29,0.22,-0.29,-0.15
0.855,-0.36,1.43,-0.02,0.22,-0.29,-0.15
0.859,-0.36,1.43,-0.02,0.19,-0.19,-0.20
0.859,-0.36,1.43,-0.02,0.15,-0.11,-0.26
0.86,-0.14,1.32,-0.23,0.15,-0.11,-0.26
0.863,0.08,1.29,-0.32,0.15,-0.11,-0.26
0.864,0.08,1.29,-0.32,0.11,-0.04,-0.32
0.864,0.08,1.29,-0.32,0.08,0.03,-0.38
0.867,0.22,1.24,-0.35,0.08,0.03,-0.38
0.867,0.22,1.24,-0.35,0.04,0.08,-0.44
0.87,0.22,1.24,-0.35,0.00,0.12,-0.51
0.872,0.22,1.24,-0.35,-0.03,0.15,-0.57
0.873,0.22,1.24,-0.35,-0.07,0.17,-0.62
0.874,0.24,1.24,-0.36,-0.07,0.17,-0.62
0.877,0.15,1.18,-0.28,-0.07,0.17,-0.62
0.877,0.15,1.18,-0.28,-0.10,0.18,-0.69
0.882,0.15,1.18,-0.28,-0.13,0.18,-0.74
0.882,0.30,1.18,-0.21,-0.13,0.18,-0.74
0.882,0.30,1.18,-0.21,-0.16,0.18,-0.80
0.886,0.29,1.14,-0.11,-0.16,0.18,-0.80
0.886,0.29,1.14,-0.11,-0.18,0.18,-0.87
0.913,0.54,1.06,-0.02,-0.18,0.18,-0.87
0.914,0.54,1.06,-0.02,-0.21,0.17,-0.93
0.914,0.54,1.06,-0.02,-0.23,0.15,-1.00
0.914,0.54,1.06,-0.02,-0.25,0.13,-1.06
0.914,0.67,1.00,0.05,-0.25,0.13,-1.06
0.915,0.67,1.00,0.05,-0.27,0.11,-1.12
0.915,0.60,0.92,0.08,-0.27,0.11,-1.12
0.915,0.60,0.92,0.08,-0.29,0.08,-1.18
0.915,0.60,0.92,0.08,-0.31,0.05,-1.24
0.915,0.61,0.86,0.18,-0.31,0.05,-1.24
0.916,0.54,0.81,0.25,-0.31,0.05,-1.24
0.916,0.54,0.81,0.25,-0.32,0.02,-1.29
0.916,0.54,0.81,0.25,-0.33,-0.01,-1.34
0.916,0.36,0.75,0.32,-0.33,-0.01,-1.34
0.916,0.36,0.75,0.32,-0.34,-0.05,-1.39
0.917,0.36,0.75,0.32,-0.36,-0.08,-1.42
0.917,0.15,0.67,0.31,-0.36,-0.08,-1.42
0.917,0.15,0.67,0.31,-0.37,-0.11,-1.46
0.917,0.15,0.67,0.31,-0.38,-0.15,-1.49
0.917,0.09,0.58,0.30,-0.38,-0.15,-1.49
0.938,0.09,0.58,0.30,-0.39,-0.18,-1.52
0.938,-0.03,0.50,0.29,-0.39,-0.18,-1.52
0.938,-0.03,0.50,0.29,-0.39,-0.21,-1.54
0.938,-0.03,0.50,0.29,-0.41,-0.23,-1.57
0.938,-0.20,0.39,0.27,-0.41,-0.23,-1.57
0.939,-0.20,0.39,0.27,-0.42,-0.25,-1.58
0.939,-0.27,0.31,0.28,-0.42,-0.25,-1.58
0.939,-0.27,0.31,0.28,-0.42,-0.27,-1.60
0.939,-0.18,0.20,0.25,-0.42,-0.27,-1.60
0.939,-0.18,0.20,0.25,-0.43,-0.29,-1.62
0.939,-0.18,0.20,0.25,-0.44,-0.30,-1.63
0.94,-0.18,0.20,0.25,-0.45,-0.31,-1.64
0.94,-0.20,0.14,0.20,-0.45,-0.31,-1.64
0.94,-0.20,0.14,0.20,-0.45,-0.32,-1.65
0.94,-0.36,0.08,0.17,-0.45,-0.32,-1.65
0.94,-0.36,0.08,0.17,-0.46,-0.32,-1.66
0.945,-0.36,0.08,0.17,-0.47,-0.32,-1.66
0.945,-0.38,0.05,0.12,-0.47,-0.32,-1.66
0.945,-0.38,0.05,0.12,-0.48,-0.33,-1.66
0.954,-0.31,0.01,0.06,-0.48,-0.33,-1.66
0.954,-0.31,0.01,0.06,-0.49,-0.34,-1.67
0.954,-0.31,0.01,0.06,-0.50,-0.35,-1.67
0.954,-0.20,-0.05,-0.02,-0.50,-0.35,-1.67
0.954,-0.20,-0.05,-0.02,-0.51,-0.37,-1.67
0.955,-0.20,-0.05,-0.02,-0.52,-0.38,-1.66
0.955,-0.26,-0.06,-0.04,-0.52,-0.38,-1.66
0.958,-0.26,-0.06,-0.04,-0.53,-0.39,-1.66
0.959,-0.37,-0.06,-0.02,-0.53,-0.39,-1.66
0.959,-0.37,-0.06,-0.02,-0.54,-0.39,-1.65
0.964,-0.37,-0.06,-0.02,-0.54,-0.38,-1.64
0.964,-0.36,-0.00,-0.04,-0.54,-0.38,-1.64
0.964,-0.36,-0.00,-0.04,-0.55,-0.38,-1.63
0.968,-0.40,-0.00,-0.13,-0.55,-0.38,-1.63
0.968,-0.40,-0.00,-0.13,-0.56,-0.38,-1.62
0.97,-0.45,0.03,-0.24,-0.56,-0.38,-1.62
0.973,-0.45,0.03,-0.24,-0.57,-0.38,-1.60
0.975,-0.53,0.08,-0.25,-0.57,-0.38,-1.60
0.975,-0.53,0.08,-0.25,-0.58,-0.37,-1.58
0.976,-0.53,0.08,-0.25,-0.59,-0.37,-1.56
0.978,-0.53,0.08,-0.25,-0.59,-0.36,-1.54
0.979,-0.45,0.12,-0.29,-0.59,-0.36,-1.54
0.979,-0.45,0.12,-0.29,-0.60,-0.35,-1.51
0.983,-0.45,0.12,-0.29,-0.61,-0.35,-1.49
0.983,-0.39,0.14,-0.25,-0.61,-0.35,-1.49
0.983,-0.39,0.14,-0.25,-0.61,-0.34,-1.47
0.987,-0.16,0.20,-0.24,-0.61,-0.34,-1.47
0.987,-0.16,0.20,-0.24,-0.61,-0.34,-1.45
0.992,-0.16,0.20,-0.24,-0.61,-0.34,-1.43
0.993,-0.07,0.28,-0.14,-0.61,-0.34,-1.43
0.993,-0.07,0.28,-0.14,-0.61,-0.33,-1.42
0.994,-0.07,0.28,-0.14,-0.60,-0.32,-1.40
0.995,0.02,0.27,-0.05,-0.60,-0.32,-1.40
0.999,0.02,0.27,-0.05,-0.60,-0.33,-1.38
0.999,0.02,0.27,-0.05,-0.59,-0.35,-1.36
0.999,0.14,0.29,-0.09,-0.59,-0.35,-1.36
1.003,0.14,0.29,-0.09,-0.58,-0.37,-1.35
1.003,0.14,0.29,-0.09,-0.57,-0.41,-1.33
1.003,0.32,0.27,-0.10,-0.57,-0.41,-1.33
1.007,0.32,0.27,-0.10,-0.57,-0.46,-1.31
1.009,0.43,0.31,-0.22,-0.57,-0.46,-1.31
1.01,0.43,0.31,-0.22,-0.56,-0.53,-1.29
1.011,0.46,0.28,-0.47,-0.56,-0.53,-1.29
1.011,0.46,0.28,-0.47,-0.56,-0.61,-1.27
1.015,0.46,0.28,-0.47,-0.55,-0.69,-1.24
1.016,0.49,0.25,-0.53,-0.55,-0.69,-1.24
1.019,0.49,0.25,-0.53,-0.54,-0.75,-1.21
1.019,0.49,0.25,-0.53,-0.53,-0.80,-1.18
1.019,0.48,0.26,-0.35,-0.53,-0.80,-1.18
1.022,0.48,0.26,-0.35,-0.51,-0.81,-1.15
1.023,0.48,0.26,-0.35,-0.48,-0.81,-1.12
1.023,0.44,0.36,-0.02,-0.48,-0.81,-1.12
1.027,0.50,0.41,0.30,-0.48,-0.81,-1.12
1.027,0.50,0.41,0.30,-0.45,-0.80,-1.10
1.03,0.50,0.41,0.30,-0.42,-0.78,-1.07
1.03,0.50,0.41,0.30,-0.39,-0.77,-1.04
1.031,0.58,0.39,0.44,-0.39,-0.77,-1.04
1.035,0.58,0.39,0.44,-0.35,-0.75,-1.02
1.035,0.52,0.39,0.58,-0.35,-0.75,-1.02
1.039,0.52,0.39,0.58,-0.32,-0.73,-0.99
1.04,0.52,0.39,0.58,-0.28,-0.73,-0.96
1.04,0.53,0.33,0.66,-0.28,-0.73,-0.96
1.067,0.53,0.33,0.66,-0.24,-0.72,-0.93
1.067,0.53,0.33,0.66,-0.20,-0.72,-0.90
1.067,0.56,0.25,0.60,-0.20,-0.72,-0.90
1.067,0.46,0.20,0.50,-0.20,-0.72,-0.90
1.067,0.46,0.20,0.50,-0.17,-0.72,-0.86
1.068,0.46,0.20,0.50,-0.14,-0.71,-0.82
1.068,0.22,0.21,0.53,-0.14,-0.71,-0.82
1.068,0.22,0.21,0.53,-0.10,-0.68,-0.78
1.068,0.22,0.21,0.53,-0.06,-0.66,-0.74
1.069,0.01,0.20,0.61,-0.06,-0.66,-0.74
1.069,0.01,0.20,0.61,-0.03,-0.63,-0.70
1.069,0.01,0.20,0.61,0.00,-0.59,-0.66
1.069,-0.12,0.16,0.61,0.00,-0.59,-0.66
1.069,-0.12,0.16,0.61,0.04,-0.56,-0.62
1.07,-0.16,0.14,0.56,0.04,-0.56,-0.62
1.07,-0.16,0.14,0.56,0.07,-0.53,-0.59
1.07,-0.14,0.12,0.47,0.07,-0.53,-0.59
1.07,-0.14,0.12,0.47,0.09,-0.50,-0.55
1.07,-0.14,0.12,0.47,0.12,-0.48,-0.52
1.089,-0.13,0.13,0.34,0.12,-0.48,-0.52
1.09,-0.13,0.13,0.34,0.14,-0.46,-0.49
1.09,-0.13,0.13,0.34,0.15,-0.45,-0.46
1.09,-0.10,0.14,0.20,0.15,-0.45,-0.46
1.09,-0.10,0.14,0.20,0.17,-0.45,-0.44
1.091,-0.10,0.14,0.20,0.18,-0.45,-0.41
1.091,-0.07,0.11,0.09,0.18,-0.45,-0.41
1.091,-0.07,0.11,0.09,0.20,-0.45,-0.39
1.091,-0.07,0.11,0.09,0.20,-0.45,-0.37
1.092,-0.05,0.13,0.00,0.20,-0.45,-0.37
1.092,-0.09,0.15,-0.04,0.20,-0.45,-0.37
1.092,-0.09,0.15,-0.04,0.21,-0.45,-0.35
1.092,-0.09,0.15,-0.04,0.22,-0.45,-0.33
1.093,-0.12,0.15,-0.04,0.22,-0.45,-0.33
1.093,-0.12,0.15,-0.04,0.23,-0.46,-0.32
1.093,-0.12,0.15,-0.04,0.23,-0.46,-0.30
1.095,-0.19,0.15,-0.00,0.23,-0.46,-0.30
1.1,-0.19,0.15,-0.00,0.24,-0.47,-0.29
1.101,-0.19,0.15,-0.00,0.24,-0.47,-0.27
1.101,-0.19,0.12,0.07,0.24,-0.47,-0.27
1.102,-0.19,0.12,0.07,0.25,-0.47,-0.26
1.103,-0.21,0.12,0.14,0.25,-0.47,-0.26
1.103,-0.21,0.12,0.14,0.26,-0.47,-0.25
1.107,-0.19,0.13,0.23,0.26,-0.47,-0.25
1.108,-0.19,0.13,0.23,0.27,-0.47,-0.23
1.11,-0.19,0.13,0.23,0.27,-0.47,-0.23
1.112,-0.16,0.12,0.28,0.27,-0.47,-0.23
1.112,-0.16,0.12,0.28,0.28,-0.47,-0.22
1.113,-0.16,0.12,0.28,0.28,-0.47,-0.21
1.116,-0.19,0.11,0.34,0.28,-0.47,-0.21
1.117,-0.19,0.11,0.34,0.29,-0.46,-0.20
1.121,-0.19,0.11,0.34,0.30,-0.46,-0.20
1.121,-0.18,0.08,0.37,0.30,-0.46,-0.20
1.121,-0.18,0.08,0.37,0.30,-0.46,-0.19
1.125,-0.18,0.08,0.37,0.31,-0.46,-0.19
1.126,-0.19,0.09,0.42,0.31,-0.46,-0.19
1.129,-0.15,0.06,0.42,0.31,-0.46,-0.19
1.129,-0.15,0.06,0.42,0.31,-0.45,-0.19
1.129,-0.15,0.06,0.42,0.32,-0.44,-0.19
1.133,-0.11,0.09,0.41,0.32,-0.44,-0.19
1.133,-0.11,0.09,0.41,0.32,-0.44,-0.19
1.133,-0.11,0.09,0.41,0.32,-0.43,-0.18
1.136,-0.14,0.08,0.42,0.32,-0.43,-0.18
1.137,-0.14,0.08,0.42,0.32,-0.42,-0.18
1.144,-0.14,0.08,0.42,0.32,-0.41,-0.18
1.145,-0.17,0.05,0.43,0.32,-0.41,-0.18
1.145,-0.17,0.05,0.43,0.32,-0.41,-0.18
1.145,-0.17,0.05,0.46,0.32,-0.41,-0.18
1.145,-0.17,0.05,0.46,0.32,-0.39,-0.18
1.148,-0.16,0.03,0.46,0.32,-0.39,-0.18
1.148,-0.16,0.03,0.46,0.31,-0.39,-0.19
1.149,-0.16,0.03,0.46,0.31,-0.38,-0.19
1.152,-0.16,0.03,0.46,0.31,-0.37,-0.19
1.153,-0.12,0.05,0.47,0.31,-0.37,-0.19
1.153,-0.12,0.05,0.47,0.30,-0.36,-0.20
1.156,-0.07,0.01,0.48,0.30,-0.36,-0.20
1.157,-0.07,0.01,0.48,0.30,-0.35,-0.21
1.161,0.01,-0.01,0.48,0.30,-0.35,-0.21
1.161,0.01,-0.01,0.48,0.29,-0.34,-0.21
1.161,0.01,-0.01,0.48,0.29,-0.33,-0.22
1.164,0.08,-0.06,0.48,0.29,-0.33,-0.22
1.165,0.08,-0.06,0.48,0.28,-0.32,-0.23
1.169,0.05,-0.05,0.48,0.28,-0.32,-0.23
1.17,0.05,-0.05,0.48,0.27,-0.31,-0.25
1.17,0.05,-0.05,0.48,0.26,-0.30,-0.26
1.173,0.07,-0.10,0.44,0.26,-0.30,-0.26
1.173,0.07,-0.10,0.44,0.26,-0.29,-0.27
1.173,0.07,-0.10,0.44,0.24,-0.29,-0.28
1.177,0.03,-0.13,0.39,0.24,-0.29,-0.28
1.177,0.03,-0.13,0.39,0.23,-0.29,-0.29
1.181,0.03,-0.13,0.39,0.22,-0.29,-0.29
1.181,-0.03,-0.17,0.34,0.22,-0.29,-0.29
1.181,-0.03,-0.17,0.34,0.20,-0.29,-0.30
1.185,-0.03,-0.17,0.34,0.18,-0.29,-0.31
1.185,-0.08,-0.21,0.30,0.18,-0.29,-0.31
1.19,-0.12,-0.26,0.25,0.18,-0.29,-0.31
1.191,-0.12,-0.26,0.25,0.17,-0.29,-0.32
1.191,-0.12,-0.26,0.25,0.15,-0.30,-0.33
1.218,-0.12,-0.26,0.23,0.15,-0.30,-0.33
1.218,-0.12,-0.26,0.23,0.13,-0.30,-0.34
1.218,-0.12,-0.26,0.23,0.12,-0.30,-0.35
1.219,-0.14,-0.29,0.21,0.12,-0.30,-0.35
1.219,-0.14,-0.29,0.21,0.10,-0.31,-0.36
1.219,-0.14,-0.29,0.21,0.08,-0.32,-0.36
1.219,-0.37,-0.31,0.21,0.08,-0.32,-0.36
1.22,-0.37,-0.31,0.21,0.06,-0.32,-0.36
1.22,-0.37,-0.31,0.21,0.04,-0.33,-0.36
1.22,-0.49,-0.33,0.17,0.04,-0.33,-0.36
1.22,-0.51,-0.34,0.16,0.04,-0.33,-0.36
1.22,-0.51,-0.34,0.16,0.02,-0.34,-0.36
1.221,-0.51,-0.34,0.16,0.01,-0.35,-0.37
1.221,-0.51,-0.34,0.16,-0.01,-0.36,-0.38
1.221,-0.32,-0.42,0.19,-0.01,-0.36,-0.38
1.221,-0.32,-0.42,0.19,-0.03,-0.38,-0.40
1.221,-0.15,-0.49,0.16,-0.03,-0.38,-0.40
1.222,-0.15,-0.49,0.16,-0.05,-0.39,-0.41
1.222,-0.15,-0.49,0.16,-0.06,-0.40,-0.43
1.222,0.01,-0.50,0.21,-0.06,-0.40,-0.43
1.222,0.01,-0.50,0.21,-0.08,-0.42,-0.45
1.227,0.04,-0.54,0.23,-0.08,-0.42,-0.45
1.243,0.04,-0.54,0.23,-0.10,-0.43,-0.47
1.244,0.15,-0.61,0.21,-0.10,-0.43,-0.47
1.244,0.15,-0.61,0.21,-0.11,-0.44,-0.50
1.244,0.15,-0.61,0.21,-0.13,-0.45,-0.52
1.244,0.20,-0.66,0.24,-0.13,-0.45,-0.52
1.244,0.20,-0.66,0.24,-0.14,-0.46,-0.55
1.245,0.20,-0.66,0.24,-0.15,-0.47,-0.57
1.245,0.22,-0.75,0.28,-0.15,-0.47,-0.57
1.245,0.22,-0.75,0.28,-0.16,-0.48,-0.60
1.245,0.22,-0.75,0.28,-0.18,-0.49,-0.63
1.245,0.23,-0.83,0.23,-0.18,-0.49,-0.63
1.246,0.23,-0.83,0.23,-0.19,-0.49,-0.65
1.246,0.20,-0.86,0.26,-0.19,-0.49,-0.65
1.246,0.20,-0.86,0.26,-0.20,-0.50,-0.68
1.25,0.20,-0.86,0.26,-0.21,-0.51,-0.71
1.25,0.20,-0.86,0.26,-0.22,-0.51,-0.73
1.25,0.27,-0.94,0.28,-0.22,-0.51,-0.73
1.252,0.28,-1.03,0.29,-0.22,-0.51,-0.73
1.252,0.28,-1.03,0.29,-0.23,-0.52,-0.76
1.253,0.28,-1.03,0.29,-0.24,-0.52,-0.79
1.257,0.26,-1.05,0.31,-0.24,-0.52,-0.79
1.258,0.26,-1.05,0.31,-0.25,-0.52,-0.82
1.259,0.28,-1.07,0.31,-0.25,-0.52,-0.82
1.259,0.28,-1.07,0.31,-0.26,-0.52,-0.85
1.262,0.28,-1.07,0.31,-0.27,-0.52,-0.87
1.263,0.28,-1.07,0.31,-0.28,-0.51,-0.90
1.263,0.18,-1.11,0.31,-0.28,-0.51,-0.90
1.268,0.11,-1.11,0.28,-0.28,-0.51,-0.90
1.268,0.11,-1.11,0.28,-0.28,-0.51,-0.92
1.271,0.11,-1.11,0.28,-0.29,-0.50,-0.94
1.271,0.11,-1.11,0.28,-0.30,-0.49,-0.96
1.271,-0.00,-1.15,0.27,-0.30,-0.49,-0.96
1.275,-0.00,-1.15,0.27,-0.31,-0.48,-0.97
1.275,-0.13,-1.12,0.27,-0.31,-0.48,-0.97
1.279,-0.13,-1.12,0.27,-0.32,-0.47,-0.98
1.279,-0.30,-1.07,0.24,-0.32,-0.47,-0.98
1.28,-0.30,-1.07,0.24,-0.33,-0.45,-1.00
1.283,-0.30,-1.07,0.24,-0.34,-0.44,-1.00
1.284,-0.33,-0.99,0.21,-0.34,-0.44,-1.00
1.284,-0.33,-0.99,0.21,-0.35,-0.42,-1.01
1.287,-0.36,-0.91,0.21,-0.35,-0.42,-1.01
1.29,-0.34,-0.81,0.23,-0.35,-0.42,-1.01
1.295,-0.23,-0.72,0.26,-0.35,-0.42,-1.01
1.295,-0.23,-0.72,0.26,-0.36,-0.40,-1.02
1.296,-0.23,-0.72,0.26,-0.37,-0.38,-1.02
1.296,-0.23,-0.72,0.26,-0.38,-0.36,-1.03
1.297,-0.23,-0.72,0.26,-0.39,-0.34,-1.04
1.297,-0.23,-0.72,0.26,-0.40,-0.32,-1.05
1.299,-0.23,-0.72,0.26,-0.40,-0.29,-1.07
1.299,0.03,-0.67,0.28,-0.40,-0.29,-1.07
1.305,0.26,-0.54,0.28,-0.40,-0.29,-1.07
1.305,0.26,-0.54,0.28,-0.41,-0.27,-1.09
1.305,0.26,-0.54,0.28,-0.42,-0.25,-1.10
1.308,0.25,-0.40,0.30,-0.42,-0.25,-1.10
1.309,0.25,-0.40,0.30,-0.42,-0.22,-1.12
1.312,0.25,-0.40,0.30,-0.42,-0.20,-1.12
1.312,0.12,-0.22,0.36,-0.42,-0.20,-1.12
1.312,0.12,-0.22,0.36,-0.43,-0.18,-1.13
1.315,0.12,-0.22,0.36,-0.43,-0.17,-1.13
1.315,0.03,0.02,0.39,-0.43,-0.17,-1.13
1.319,0.03,0.02,0.39,-0.43,-0.16,-1.12
1.319,0.03,0.02,0.39,-0.43,-0.15,-1.12
1.319,-0.07,0.29,0.43,-0.43,-0.15,-1.12
1.324,-0.07,0.29,0.43,-0.43,-0.15,-1.11
1.325,-0.07,0.29,0.43,-0.43,-0.15,-1.10
1.325,0.01,0.52,0.52,-0.43,-0.15,-1.10
1.328,0.01,0.52,0.52,-0.42,-0.15,-1.10
1.328,0.09,0.71,0.56,-0.42,-0.15,-1.10
1.331,0.09,0.71,0.56,-0.42,-0.15,-1.09
1.331,0.09,0.71,0.56,-0.42,-0.15,-1.08
1.332,0.13,1.08,0.49,-0.42,-0.15,-1.08
1.335,0.13,1.08,0.49,-0.42,-0.14,-1.06
1.335,0.10,1.51,0.28,-0.42,-0.14,-1.06
1.339,0.10,1.51,0.28,-0.42,-0.14,-1.04
1.339,0.04,1.89,0.20,-0.42,-0.14,-1.04
1.342,0.04,1.89,0.20,-0.42,-0.13,-1.01
1.343,0.04,1.89,0.20,-0.42,-0.12,-0.98
1.37,0.04,1.89,0.20,-0.42,-0.11,-0.95
1.37,-0.04,2.24,0.12,-0.42,-0.11,-0.95
1.371,-0.06,2.45,0.09,-0.42,-0.11,-0.95
1.371,-0.06,2.45,0.09,-0.42,-0.10,-0.92
1.371,-0.06,2.45,0.09,-0.42,-0.10,-0.88
1.371,-0.12,2.67,0.04,-0.42,-0.10,-0.88
1.371,-0.12,2.67,0.04,-0.43,-0.09,-0.84
1.371,-0.12,2.67,0.04,-0.43,-0.09,-0.80
1.372,-0.27,2.83,0.05,-0.43,-0.09,-0.80
1.372,-0.27,2.83,0.05,-0.43,-0.09,-0.75
1.372,-0.27,2.83,0.05,-0.42,-0.09,-0.69
1.372,-0.60,2.90,0.04,-0.42,-0.09,-0.69
1.372,-0.60,2.90,0.04,-0.42,-0.10,-0.62
1.373,-1.06,2.97,0.08,-0.42,-0.10,-0.62
1.373,-1.51,3.00,0.11,-0.42,-0.10,-0.62
1.373,-1.51,3.00,0.11,-0.41,-0.11,-0.55
1.373,-1.51,3.00,0.11,-0.40,-0.12,-0.47
1.373,-1.51,3.00,0.11,-0.40,-0.13,-0.38
1.374,-1.77,2.97,0.16,-0.40,-0.13,-0.38
1.374,-1.77,2.97,0.16,-0.39,-0.15,-0.30
1.374,-1.77,2.97,0.16,-0.38,-0.16,-0.21
1.377,-1.85,2.84,0.22,-0.38,-0.16,-0.21
1.379,-1.85,2.84,0.22,-0.36,-0.16,-0.13
1.396,-1.86,2.63,0.30,-0.36,-0.16,-0.13
1.396,-1.86,2.63,0.30,-0.35,-0.17,-0.05
1.396,-1.86,2.63,0.30,-0.33,-0.18,0.02
1.396,-1.86,2.63,0.30,-0.31,-0.18,0.09
1.397,-1.73,2.30,0.35,-0.31,-0.18,0.09
1.397,-1.40,1.83,0.40,-0.31,-0.18,0.09
1.397,-1.40,1.83,0.40,-0.30,-0.18,0.14
1.397,-1.40,1.83,0.40,-0.28,-0.18,0.18
1.397,-0.98,1.31,0.42,-0.28,-0.18,0.18
1.398,-0.98,1.31,0.42,-0.25,-0.17,0.21
1.398,-0.98,1.31,0.42,-0.23,-0.16,0.22
1.398,-0.48,0.75,0.44,-0.23,-0.16,0.22
1.401,-0.48,0.75,0.44,-0.22,-0.14,0.22
1.401,-0.05,0.30,0.43,-0.22,-0.14,0.22
1.402,-0.05,0.30,0.43,-0.20,-0.13,0.22
1.407,-0.05,0.30,0.43,-0.18,-0.11,0.20
1.407,-0.05,0.30,0.43,-0.16,-0.09,0.19
1.407,0.12,0.01,0.38,-0.16,-0.09,0.19
1.408,0.12,0.01,0.38,-0.15,-0.07,0.17
1.408,0.12,-0.13,0.38,-0.15,-0.07,0.17
1.41,0.12,-0.13,0.38,-0.13,-0.05,0.16
1.411,0.12,-0.13,0.38,-0.11,-0.03,0.15
1.411,-0.03,-0.12,0.42,-0.11,-0.03,0.15
1.415,-0.03,-0.12,0.42,-0.10,-0.01,0.15
1.415,-0.28,-0.06,0.42,-0.10,-0.01,0.15
1.42,-0.28,-0.06,0.42,-0.08,0.01,0.14
1.42,-0.49,0.02,0.43,-0.08,0.01,0.14
1.42,-0.49,0.02,0.43,-0.07,0.03,0.14
1.422,-0.49,0.02,0.43,-0.05,0.05,0.15
1.423,-0.65,0.13,0.44,-0.05,0.05,0.15
1.423,-0.65,0.13,0.44,-0.04,0.06,0.15
1.427,-0.72,0.19,0.45,-0.04,0.06,0.15
1.427,-0.72,0.19,0.45,-0.02,0.08,0.16
1.43,-0.72,0.19,0.45,-0.01,0.09,0.16
1.43,-0.79,0.24,0.41,-0.01,0.09,0.16
1.431,-0.79,0.24,0.41,-0.00,0.10,0.16
1.435,-0.79,0.24,0.41,0.01,0.11,0.17
1.435,-0.72,0.27,0.40,0.01,0.11,0.17
1.44,-0.72,0.27,0.40,0.02,0.12,0.17
1.44,-0.72,0.27,0.40,0.03,0.13,0.17
1.44,-0.68,0.31,0.36,0.03,0.13,0.17
1.443,-0.68,0.31,0.36,0.03,0.14,0.16
1.443,-0.61,0.36,0.35,0.03,0.14,0.16
1.443,-0.61,0.36,0.35,0.04,0.15,0.16
1.447,-0.54,0.43,0.35,0.04,0.15,0.16
1.448,-0.54,0.43,0.35,0.05,0.15,0.16
1.451,-0.54,0.43,0.35,0.05,0.15,0.15
1.451,-0.44,0.48,0.37,0.05,0.15,0.15
1.451,-0.44,0.48,0.37,0.06,0.15,0.14
1.455,-0.44,0.48,0.37,0.06,0.15,0.14
1.455,-0.42,0.53,0.38,0.06,0.15,0.14
1.459,-0.42,0.53,0.38,0.07,0.15,0.13
1.459,-0.42,0.53,0.38,0.08,0.14,0.12
1.459,-0.36,0.57,0.39,0.08,0.14,0.12
1.464,-0.36,0.57,0.39,0.08,0.13,0.11
1.464,-0.36,0.57,0.39,0.08,0.12,0.10
1.464,-0.35,0.63,0.34,0.08,0.12,0.10
1.467,-0.35,0.61,0.28,0.08,0.12,0.10
1.468,-0.35,0.61,0.28,0.08,0.11,0.09
1.471,-0.35,0.61,0.28,0.08,0.10,0.09
1.471,-0.38,0.62,0.17,0.08,0.10,0.09
1.471,-0.38,0.62,0.17,0.07,0.08,0.08
1.475,-0.38,0.62,0.17,0.07,0.07,0.07
1.476,-0.39,0.59,0.07,0.07,0.07,0.07
1.479,-0.39,0.59,0.07,0.06,0.06,0.07
1.479,-0.39,0.59,0.07,0.05,0.04,0.06
1.479,-0.39,0.57,-0.04,0.05,0.04,0.06
1.483,-0.39,0.57,-0.04,0.04,0.03,0.06
1.483,-0.45,0.54,-0.16,0.04,0.03,0.06
1.484,-0.45,0.54,-0.16,0.03,0.02,0.05
1.488,-0.46,0.50,-0.24,0.03,0.02,0.05
1.488,-0.46,0.50,-0.24,0.01,0.00,0.04
1.49,-0.46,0.50,-0.24,-0.00,-0.01,0.04
1.493,-0.46,0.50,-0.24,-0.02,-0.02,0.03
1.494,-0.40,0.38,-0.29,-0.02,-0.02,0.03
1.495,-0.40,0.38,-0.29,-0.04,-0.03,0.02
1.495,-0.38,0.26,-0.31,-0.04,-0.03,0.02
1.497,-0.38,0.26,-0.31,-0.05,-0.05,0.01
1.5,-0.38,0.26,-0.31,-0.06,-0.06,-0.00
1.5,-0.28,0.14,-0.27,-0.06,-0.06,-0.00
1.525,-0.28,0.14,-0.27,-0.08,-0.07,-0.02
1.525,-0.28,0.14,-0.27,-0.09,-0.08,-0.04
1.525,-0.12,-0.02,-0.27,-0.09,-0.08,-0.04
1.525,-0.12,-0.02,-0.27,-0.09,-0.09,-0.06
1.525,0.01,-0.14,-0.19,-0.09,-0.09,-0.06
1.526,0.01,-0.14,-0.19,-0.10,-0.10,-0.08
1.526,0.15,-0.27,-0.11,-0.10,-0.10,-0.08
1.526,0.15,-0.27,-0.11,-0.11,-0.10,-0.10
1.526,0.15,-0.27,-0.11,-0.11,-0.11,-0.13
1.526,0.23,-0.37,-0.01,-0.11,-0.11,-0.13
1.526,0.23,-0.37,-0.01,-0.11,-0.11,-0.15
1.526,0.23,-0.37,-0.01,-0.11,-0.11,-0.18
1.526,0.23,-0.37,-0.01,-0.11,-0.11,-0.20
1.526,0.23,-0.37,-0.01,-0.10,-0.11,-0.23
1.527,0.31,-0.46,0.08,-0.10,-0.11,-0.23
1.527,0.44,-0.59,0.17,-0.10,-0.11,-0.23
1.533,0.54,-0.71,0.23,-0.10,-0.11,-0.23
1.534,0.54,-0.71,0.23,-0.09,-0.11,-0.26
1.534,0.54,-0.71,0.23,-0.08,-0.10,-0.29
1.534,0.71,-0.76,0.32,-0.08,-0.10,-0.29
1.548,0.71,-0.76,0.32,-0.08,-0.09,-0.32
1.548,0.71,-0.76,0.32,-0.06,-0.08,-0.36
1.548,0.91,-0.85,0.37,-0.06,-0.08,-0.36
1.548,0.91,-0.85,0.37,-0.06,-0.07,-0.40
1.548,1.10,-0.90,0.38,-0.06,-0.07,-0.40
1.548,1.10,-0.90,0.38,-0.04,-0.05,-0.44
1.548,1.10,-0.90,0.38,-0.03,-0.03,-0.48
1.549,1.14,-0.91,0.37,-0.03,-0.03,-0.48
1.549,1.14,-0.91,0.37,-0.02,-0.01,-0.52
1.549,0.98,-0.94,0.37,-0.02,-0.01,-0.52
1.549,0.98,-0.94,0.37,-0.01,0.01,-0.55
1.549,0.98,-0.94,0.37,-0.00,0.04,-0.58
1.554,0.75,-0.96,0.33,-0.00,0.04,-0.58
1.554,0.75,-0.96,0.33,0.01,0.07,-0.60
1.554,0.75,-0.96,0.33,0.01,0.10,-0.62
1.558,0.51,-1.00,0.29,0.01,0.10,-0.62
1.559,0.51,-1.00,0.29,0.03,0.13,-0.63
1.559,0.26,-0.94,0.24,0.03,0.13,-0.63
1.559,0.26,-0.94,0.24,0.03,0.17,-0.63
1.562,0.26,-0.94,0.24,0.04,0.21,-0.63
1.564,0.26,-0.94,0.24,0.04,0.25,-0.63
1.564,0.09,-0.90,0.21,0.04,0.25,-0.63
1.566,-0.07,-0.84,0.15,0.04,0.25,-0.63
1.566,-0.07,-0.84,0.15,0.05,0.29,-0.62
1.57,-0.07,-0.84,0.15,0.06,0.34,-0.62
1.57,-0.16,-0.78,0.07,0.06,0.34,-0.62
1.57,-0.16,-0.78,0.07,0.06,0.38,-0.60
1.575,-0.16,-0.78,0.07,0.07,0.42,-0.59
1.575,-0.24,-0.72,0.02,0.07,0.42,-0.59
1.579,-0.24,-0.72,0.02,0.07,0.46,-0.58
1.579,-0.27,-0.63,-0.07,0.07,0.46,-0.58
1.579,-0.27,-0.63,-0.07,0.07,0.51,-0.56
1.583,-0.27,-0.63,-0.07,0.08,0.55,-0.55
1.583,-0.27,-0.63,-0.07,0.08,0.59,-0.53
1.583,-0.27,-0.53,-0.15,0.08,0.59,-0.53
1.588,-0.28,-0.45,-0.23,0.08,0.59,-0.53
1.588,-0.28,-0.45,-0.23,0.08,0.64,-0.51
1.59,-0.28,-0.45,-0.23,0.07,0.68,-0.50
1.593,-0.29,-0.34,-0.33,0.07,0.68,-0.50
1.593,-0.29,-0.34,-0.33,0.07,0.71,-0.48
1.595,-0.29,-0.34,-0.33,0.07,0.75,-0.46
1.595,-0.28,-0.23,-0.41,0.07,0.75,-0.46
1.599,-0.28,-0.23,-0.41,0.07,0.78,-0.45
1.599,-0.26,-0.17,-0.52,0.07,0.78,-0.45
1.6,-0.26,-0.17,-0.52,0.06,0.82,-0.43
1.603,-0.26,-0.17,-0.52,0.05,0.85,-0.41
1.604,-0.20,-0.10,-0.60,0.05,0.85,-0.41
1.604,-0.20,-0.10,-0.60,0.05,0.89,-0.40
1.607,-0.19,-0.05,-0.64,0.05,0.89,-0.40
1.608,-0.19,-0.05,-0.64,0.04,0.93,-0.39
1.611,-0.19,-0.05,-0.64,0.03,0.96,-0.37
1.611,-0.14,-0.00,-0.69,0.03,0.96,-0.37
1.612,-0.14,-0.00,-0.69,0.03,1.00,-0.36
1.614,-0.14,-0.00,-0.69,0.02,1.04,-0.35
1.615,-0.13,0.05,-0.73,0.02,1.04,-0.35
1.619,-0.13,0.05,-0.73,0.01,1.08,-0.33
1.62,-0.13,0.05,-0.73,0.00,1.11,-0.32
1.62,-0.09,0.08,-0.75,0.00,1.11,-0.32
1.624,-0.09,0.08,-0.75,-0.00,1.15,-0.31
1.625,-0.09,0.08,-0.75,-0.01,1.19,-0.30
1.625,-0.06,0.09,-0.79,-0.01,1.19,-0.30
1.628,-0.01,0.15,-0.79,-0.01,1.19,-0.30
1.628,-0.01,0.15,-0.79,-0.02,1.23,-0.29
1.632,-0.01,0.15,-0.79,-0.03,1.26,-0.28
1.632,0.01,0.15,-0.79,-0.03,1.26,-0.28
1.632,0.01,0.15,-0.79,-0.03,1.31,-0.27
1.635,0.02,0.14,-0.76,-0.03,1.31,-0.27
1.636,0.02,0.14,-0.76,-0.04,1.35,-0.27
1.639,0.02,0.14,-0.76,-0.05,1.39,-0.26
1.639,0.03,0.10,-0.73,-0.05,1.39,-0.26
1.639,0.03,0.10,-0.73,-0.05,1.44,-0.25
1.646,0.03,0.10,-0.73,-0.05,1.49,-0.24
1.646,0.04,0.09,-0.67,-0.05,1.49,-0.24
1.646,0.04,0.09,-0.67,-0.05,1.53,-0.23
1.648,0.02,0.05,-0.62,-0.05,1.53,-0.23
1.648,0.02,0.05,-0.62,-0.05,1.58,-0.22
1.651,0.02,0.05,-0.62,-0.05,1.64,-0.22
1.654,0.02,0.05,-0.62,-0.04,1.69,-0.21
1.654,0.04,0.01,-0.51,-0.04,1.69,-0.21
1.679,0.02,0.00,-0.40,-0.04,1.69,-0.21
1.68,0.02,0.00,-0.40,-0.04,1.75,-0.20
1.68,0.02,0.00,-0.40,-0.03,1.80,-0.19
1.68,0.02,-0.03,-0.26,-0.03,1.80,-0.19
1.68,0.02,-0.03,-0.26,-0.02,1.86,-0.18
1.68,0.02,-0.03,-0.26,-0.00,1.92,-0.18
1.681,0.02,-0.03,-0.26,0.01,1.97,-0.17
1.681,0.05,-0.05,-0.17,0.01,1.97,-0.17
1.681,0.07,-0.03,-0.06,0.01,1.97,-0.17
1.681,0.07,-0.03,-0.06,0.03,2.03,-0.17
1.682,0.07,-0.03,-0.06,0.04,2.08,-0.16
1.682,0.13,-0.01,-0.01,0.04,2.08,-0.16
1.682,0.13,-0.01,-0.01,0.06,2.14,-0.16
1.682,0.13,-0.01,-0.01,0.08,2.18,-0.16
1.682,0.17,0.05,0.06,0.08,2.18,-0.16
1.683,0.17,0.05,0.06,0.10,2.22,-0.16
1.683,0.27,0.11,0.09,0.10,2.22,-0.16
1.683,0.27,0.11,0.09,0.12,2.26,-0.16
1.683,0.27,0.11,0.09,0.14,2.30,-0.17
1.684,0.27,0.11,0.09,0.16,2.33,-0.17
1.684,0.31,0.18,0.13,0.16,2.33,-0.17
1.698,0.41,0.26,0.16,0.16,2.33,-0.17
1.698,0.41,0.26,0.16,0.18,2.35,-0.18
1.698,0.41,0.26,0.16,0.21,2.37,-0.19
1.698,0.41,0.26,0.16,0.22,2.39,-0.20
1.698,0.47,0.35,0.20,0.22,2.39,-0.20
1.699,0.47,0.35,0.20,0.24,2.40,-0.21
1.699,0.53,0.39,0.21,0.24,2.40,-0.21
1.699,0.53,0.39,0.21,0.27,2.40,-0.22
1.699,0.55,0.47,0.25,0.27,2.40,-0.22
1.699,0.55,0.47,0.25,0.29,2.41,-0.23
1.704,0.55,0.47,0.25,0.31,2.41,-0.24
1.705,0.64,0.50,0.26,0.31,2.41,-0.24
1.705,0.64,0.50,0.26,0.34,2.41,-0.25
1.71,0.69,0.55,0.25,0.34,2.41,-0.25
1.71,0.69,0.55,0.25,0.35,2.40,-0.26
1.711,0.69,0.55,0.25,0.38,2.40,-0.28
1.718,0.69,0.57,0.28,0.38,2.40,-0.28
1.718,0.69,0.57,0.28,0.40,2.39,-0.29
1.719,0.69,0.57,0.28,0.42,2.38,-0.30
1.719,0.72,0.57,0.25,0.42,2.38,-0.30
1.719,0.72,0.57,0.25,0.44,2.36,-0.31
1.719,0.73,0.60,0.24,0.44,2.36,-0.31
1.719,0.73,0.60,0.24,0.46,2.35,-0.32
1.721,0.73,0.60,0.24,0.48,2.32,-0.33
1.724,0.73,0.60,0.24,0.50,2.30,-0.35
1.724,0.69,0.55,0.22,0.50,2.30,-0.35
1.728,0.68,0.54,0.17,0.50,2.30,-0.35
1.728,0.68,0.54,0.17,0.52,2.27,-0.35
1.73,0.68,0.54,0.17,0.53,2.24,-0.36
1.732,0.66,0.47,0.12,0.53,2.24,-0.36
1.732,0.66,0.47,0.12,0.55,2.21,-0.37
1.732,0.66,0.47,0.12,0.56,2.17,-0.38
1.736,0.59,0.39,0.06,0.56,2.17,-0.38
1.736,0.59,0.39,0.06,0.58,2.13,-0.38
1.74,0.56,0.28,-0.02,0.58,2.13,-0.38
1.74,0.56,0.28,-0.02,0.59,2.08,-0.39
1.74,0.56,0.28,-0.02,0.60,2.04,-0.39
1.744,0.56,0.28,-0.02,0.60,1.99,-0.39
1.744,0.49,0.18,-0.10,0.60,1.99,-0.39
1.749,0.44,0.09,-0.21,0.60,1.99,-0.39
1.749,0.44,0.09,-0.21,0.61,1.94,-0.39
1.749,0.44,0.09,-0.21,0.61,1.89,-0.39
1.755,0.39,0.00,-0.27,0.61,1.89,-0.39
1.755,0.39,0.00,-0.27,0.61,1.83,-0.39
1.755,0.39,0.00,-0.27,0.61,1.78,-0.39
1.756,0.35,-0.10,-0.35,0.61,1.78,-0.39
1.756,0.35,-0.10,-0.35,0.61,1.72,-0.39
1.76,0.35,-0.10,-0.35,0.61,1.65,-0.38
1.76,0.29,-0.16,-0.44,0.61,1.65,-0.38
1.76,0.29,-0.16,-0.44,0.60,1.59,-0.38
1.765,0.29,-0.16,-0.44,0.60,1.52,-0.38
1.765,0.27,-0.21,-0.50,0.60,1.52,-0.38
1.769,0.25,-0.27,-0.57,0.60,1.52,-0.38
1.769,0.25,-0.27,-0.57,0.59,1.45,-0.37
1.769,0.25,-0.27,-0.57,0.58,1.37,-0.37
1.772,0.25,-0.27,-0.57,0.57,1.30,-0.37
1.773,0.25,-0.32,-0.62,0.57,1.30,-0.37
1.773,0.25,-0.32,-0.62,0.56,1.23,-0.36
1.777,0.20,-0.36,-0.68,0.56,1.23,-0.36
1.777,0.20,-0.36,-0.68,0.55,1.15,-0.36
1.781,0.22,-0.39,-0.70,0.55,1.15,-0.36
1.782,0.22,-0.39,-0.70,0.53,1.07,-0.35
1.782,0.22,-0.39,-0.70,0.52,0.99,-0.35
1.785,0.20,-0.39,-0.76,0.52,0.99,-0.35
1.786,0.20,-0.39,-0.76,0.50,0.91,-0.34
1.789,0.20,-0.38,-0.78,0.50,0.91,-0.34
1.789,0.20,-0.38,-0.78,0.48,0.83,-0.34
1.789,0.20,-0.38,-0.78,0.47,0.75,-0.33
1.792,0.19,-0.35,-0.81,0.47,0.75,-0.33
1.792,0.19,-0.35,-0.81,0.45,0.67,-0.32
1.793,0.19,-0.35,-0.81,0.43,0.59,-0.32
1.796,0.20,-0.34,-0.81,0.43,0.59,-0.32
1.797,0.20,-0.34,-0.81,0.41,0.51,-0.31
1.801,0.23,-0.25,-0.83,0.41,0.51,-0.31
1.801,0.23,-0.25,-0.83,0.39,0.43,-0.30
1.801,0.23,-0.25,-0.83,0.37,0.36,-0.30
1.806,0.23,-0.25,-0.83,0.35,0.29,-0.29
1.806,0.23,-0.17,-0.82,0.35,0.29,-0.29
1.809,0.23,-0.17,-0.82,0.33,0.22,-0.29
1.809,0.29,-0.07,-0.81,0.33,0.22,-0.29
1.837,0.29,-0.07,-0.81,0.31,0.15,-0.28
1.838,0.29,-0.07,-0.81,0.29,0.08,-0.27
1.838,0.28,0.01,-0.80,0.29,0.08,-0.27
1.838,0.28,0.01,-0.80,0.27,0.02,-0.27
1.838,0.32,0.07,-0.77,0.27,0.02,-0.27
1.838,0.32,0.07,-0.77,0.25,-0.04,-0.26
1.839,0.30,0.17,-0.73,0.25,-0.04,-0.26
1.839,0.30,0.17,-0.73,0.23,-0.09,-0.25
1.839,0.30,0.17,-0.73,0.21,-0.15,-0.25
1.839,0.30,0.17,-0.73,0.19,-0.20,-0.24
1.84,0.32,0.19,-0.70,0.19,-0.20,-0.24
1.84,0.32,0.23,-0.64,0.19,-0.20,-0.24
1.84,0.32,0.23,-0.64,0.18,-0.25,-0.23
1.84,0.32,0.23,-0.64,0.16,-0.29,-0.22
1.84,0.31,0.23,-0.58,0.16,-0.29,-0.22
1.841,0.31,0.23,-0.58,0.14,-0.33,-0.21
1.841,0.31,0.23,-0.58,0.13,-0.36,-0.20
1.841,0.28,0.22,-0.50,0.13,-0.36,-0.20
1.841,0.28,0.22,-0.50,0.12,-0.40,-0.19
1.842,0.25,0.21,-0.40,0.12,-0.40,-0.19
1.855,0.25,0.21,-0.40,0.10,-0.43,-0.19
1.855,0.25,0.21,-0.40,0.09,-0.45,-0.18
1.855,0.22,0.16,-0.31,0.09,-0.45,-0.18
1.855,0.22,0.16,-0.31,0.08,-0.48,-0.17
1.856,0.22,0.16,-0.31,0.08,-0.50,-0.16
1.856,0.20,0.13,-0.22,0.08,-0.50,-0.16
1.856,0.20,0.13,-0.22,0.07,-0.52,-0.15
1.856,0.17,0.06,-0.13,0.07,-0.52,-0.15
1.856,0.17,0.06,-0.13,0.07,-0.54,-0.15
1.856,0.17,0.06,-0.13,0.07,-0.55,-0.14
1.856,0.18,0.01,-0.03,0.07,-0.55,-0.14
1.857,0.18,0.01,-0.03,0.07,-0.57,-0.13
1.861,0.18,0.01,-0.03,0.07,-0.58,-0.13
1.862,0.14,-0.06,0.06,0.07,-0.58,-0.13
1.862,0.14,-0.06,0.06,0.07,-0.59,-0.12
1.865,0.14,-0.06,0.06,0.08,-0.60,-0.12
1.865,0.13,-0.14,0.16,0.08,-0.60,-0.12
1.869,0.14,-0.18,0.26,0.08,-0.60,-0.12
1.87,0.14,-0.18,0.26,0.08,-0.60,-0.12
1.871,0.14,-0.18,0.26,0.09,-0.61,-0.12
1.872,0.16,-0.23,0.34,0.09,-0.61,-0.12
1.872,0.16,-0.23,0.34,0.10,-0.61,-0.12
1.872,0.16,-0.23,0.34,0.12,-0.62,-0.12
1.876,0.19,-0.27,0.42,0.12,-0.62,-0.12
1.876,0.19,-0.27,0.42,0.13,-0.62,-0.12
1.88,0.19,-0.29,0.48,0.13,-0.62,-0.12
1.881,0.19,-0.29,0.48,0.14,-0.62,-0.12
1.881,0.19,-0.29,0.48,0.15,-0.62,-0.13
1.886,0.19,-0.29,0.48,0.16,-0.62,-0.13
1.886,0.23,-0.31,0.54,0.16,-0.62,-0.13
1.889,0.23,-0.31,0.54,0.18,-0.63,-0.14
1.889,0.25,-0.28,0.58,0.18,-0.63,-0.14
1.889,0.25,-0.28,0.58,0.19,-0.63,-0.15
1.892,0.25,-0.28,0.58,0.21,-0.63,-0.16
1.892,0.26,-0.24,0.58,0.21,-0.63,-0.16
1.892,0.26,-0.24,0.58,0.22,-0.63,-0.17
1.896,0.30,-0.15,0.60,0.22,-0.63,-0.17
1.896,0.30,-0.15,0.60,0.23,-0.63,-0.18
1.899,0.36,-0.06,0.59,0.23,-0.63,-0.18
1.899,0.36,-0.06,0.59,0.25,-0.63,-0.19
1.902,0.36,-0.06,0.59,0.26,-0.63,-0.21
1.904,0.36,-0.06,0.59,0.27,-0.62,-0.22
1.905,0.43,0.04,0.56,0.27,-0.62,-0.22
1.908,0.43,0.04,0.56,0.28,-0.62,-0.24
1.909,0.46,0.15,0.54,0.28,-0.62,-0.24
1.909,0.46,0.15,0.54,0.29,-0.62,-0.26
1.912,0.52,0.30,0.52,0.29,-0.62,-0.26
1.912,0.52,0.30,0.52,0.30,-0.62,-0.28
1.913,0.52,0.30,0.52,0.30,-0.61,-0.30
1.917,0.58,0.42,0.48,0.30,-0.61,-0.30
1.917,0.58,0.42,0.48,0.31,-0.61,-0.32
1.921,0.59,0.54,0.46,0.31,-0.61,-0.32
1.921,0.59,0.54,0.46,0.32,-0.60,-0.34
1.921,0.59,0.54,0.46,0.32,-0.59,-0.36
1.925,0.60,0.61,0.45,0.32,-0.59,-0.36
1.925,0.60,0.61,0.45,0.33,-0.58,-0.39
1.929,0.60,0.68,0.44,0.33,-0.58,-0.39
1.93,0.60,0.68,0.44,0.33,-0.58,-0.41
1.93,0.60,0.68,0.44,0.34,-0.56,-0.43
1.933,0.56,0.71,0.41,0.34,-0.56,-0.43
1.934,0.56,0.71,0.41,0.34,-0.55,-0.45
1.934,0.56,0.71,0.41,0.34,-0.53,-0.46
1.936,0.51,0.67,0.39,0.34,-0.53,-0.46
1.936,0.51,0.67,0.39,0.34,-0.52,-0.48
1.941,0.42,0.61,0.36,0.34,-0.52,-0.48
1.941,0.42,0.61,0.36,0.35,-0.50,-0.49
1.942,0.42,0.61,0.36,0.35,-0.48,-0.51
1.945,0.42,0.61,0.36,0.35,-0.46,-0.51
1.945,0.31,0.51,0.37,0.35,-0.46,-0.51
1.949,0.31,0.51,0.37,0.35,-0.44,-0.52
1.949,0.19,0.42,0.36,0.35,-0.44,-0.52
1.949,0.19,0.42,0.36,0.35,-0.42,-0.53
1.953,0.05,0.26,0.35,0.35,-0.42,-0.53
1.953,0.05,0.26,0.35,0.35,-0.39,-0.53
1.954,0.05,0.26,0.35,0.35,-0.37,-0.52
1.958,-0.07,0.15,0.36,0.35,-0.37,-0.52
1.958,-0.07,0.15,0.36,0.35,-0.34,-0.52
1.961,-0.15,0.05,0.37,0.35,-0.34,-0.52
1.964,-0.15,0.05,0.37,0.35,-0.32,-0.52
1.964,-0.15,0.05,0.37,0.35,-0.29,-0.51
1.991,-0.15,0.05,0.37,0.35,-0.26,-0.50
1.991,-0.24,-0.04,0.40,0.35,-0.26,-0.50
1.992,-0.33,-0.10,0.38,0.35,-0.26,-0.50
1.992,-0.33,-0.10,0.38,0.35,-0.24,-0.49
1.992,-0.33,-0.10,0.38,0.35,-0.22,-0.49
1.992,-0.39,-0.11,0.39,0.35,-0.22,-0.49
1.992,-0.39,-0.11,0.39,0.35,-0.19,-0.48
1.993,-0.39,-0.11,0.39,0.35,-0.17,-0.46
1.993,-0.44,-0.14,0.38,0.35,-0.17,-0.46
1.993,-0.44,-0.14,0.38,0.35,-0.15,-0.45
1.993,-0.44,-0.14,0.38,0.35,-0.13,-0.44
1.993,-0.47,-0.14,0.41,0.35,-0.13,-0.44
1.993,-0.47,-0.14,0.41,0.35,-0.11,-0.42
1.994,-0.47,-0.14,0.41,0.35,-0.09,-0.41
1.994,-0.52,-0.14,0.38,0.35,-0.09,-0.41
1.994,-0.52,-0.14,0.38,0.35,-0.07,-0.40
1.994,-0.52,-0.11,0.40,0.35,-0.07,-0.40
1.994,-0.52,-0.11,0.40,0.35,-0.06,-0.39
1.994,-0.52,-0.11,0.40,0.35,-0.04,-0.37
1.994,-0.52,-0.09,0.39,0.35,-0.04,-0.37
2.008,-0.52,-0.09,0.39,0.34,-0.03,-0.36
2.009,-0.51,-0.03,0.40,0.34,-0.03,-0.36
2.009,-0.51,-0.03,0.40,0.34,-0.03,-0.35
2.009,-0.52,-0.00,0.39,0.34,-0.03,-0.35
2.009,-0.52,-0.00,0.39,0.34,-0.02,-0.34
2.009,-0.52,-0.00,0.39,0.34,-0.02,-0.33
2.009,-0.52,-0.00,0.39,0.34,-0.02,-0.33
2.01,-0.47,0.08,0.39,0.34,-0.02,-0.33
2.01,-0.45,0.12,0.40,0.34,-0.02,-0.33
2.01,-0.45,0.12,0.40,0.33,-0.02,-0.32
2.01,-0.45,0.12,0.40,0.33,-0.03,-0.32
2.013,-0.39,0.19,0.40,0.33,-0.03,-0.32
2.013,-0.39,0.19,0.40,0.33,-0.04,-0.31
2.014,-0.39,0.19,0.40,0.32,-0.05,-0.31
2.017,-0.39,0.27,0.39,0.32,-0.05,-0.31
2.017,-0.39,0.27,0.39,0.32,-0.07,-0.31
2.02,-0.32,0.34,0.38,0.32,-0.07,-0.31
2.02,-0.32,0.34,0.38,0.31,-0.09,-0.31
2.021,-0.32,0.34,0.38,0.31,-0.11,-0.32
2.024,-0.32,0.34,0.38,0.30,-0.13,-0.32
2.03,-0.32,0.40,0.37,0.30,-0.13,-0.32
2.03,-0.32,0.40,0.37,0.30,-0.16,-0.33
2.03,-0.30,0.44,0.38,0.30,-0.16,-0.33
2.031,-0.30,0.44,0.38,0.29,-0.20,-0.33
2.032,-0.30,0.44,0.38,0.28,-0.23,-0.34
2.032,-0.30,0.45,0.38,0.28,-0.23,-0.34
2.032,-0.30,0.45,0.38,0.28,-0.27,-0.35
2.036,-0.33,0.41,0.41,0.28,-0.27,-0.35
2.036,-0.33,0.41,0.41,0.27,-0.31,-0.35
2.04,-0.37,0.40,0.39,0.27,-0.31,-0.35
2.04,-0.37,0.40,0.39,0.27,-0.35,-0.36
2.041,-0.37,0.40,0.39,0.26,-0.40,-0.37
2.048,-0.37,0.40,0.39,0.25,-0.45,-0.38
2.048,-0.41,0.32,0.43,0.25,-0.45,-0.38
2.049,-0.47,0.28,0.44,0.25,-0.45,-0.38
2.049,-0.47,0.28,0.44,0.24,-0.50,-0.38
2.049,-0.47,0.28,0.44,0.24,-0.55,-0.39
2.052,-0.47,0.28,0.44,0.23,-0.60,-0.39
2.052,-0.53,0.21,0.46,0.23,-0.60,-0.39
2.052,-0.53,0.21,0.46,0.22,-0.65,-0.40
2.056,-0.56,0.10,0.48,0.22,-0.65,-0.40
2.056,-0.56,0.10,0.48,0.22,-0.70,-0.40
2.061,-0.56,0.10,0.48,0.21,-0.75,-0.40
2.062,-0.62,0.07,0.52,0.21,-0.75,-0.40
2.062,-0.62,0.07,0.52,0.20,-0.81,-0.41
2.064,-0.67,0.03,0.57,0.20,-0.81,-0.41
2.064,-0.67,0.03,0.57,0.20,-0.86,-0.41
2.069,-0.76,-0.01,0.62,0.20,-0.86,-0.41
2.069,-0.76,-0.01,0.62,0.20,-0.91,-0.41
2.069,-0.76,-0.01,0.62,0.19,-0.95,-0.41
2.072,-0.81,0.01,0.66,0.19,-0.95,-0.41
2.073,-0.81,0.01,0.66,0.19,-1.00,-0.41
2.073,-0.81,0.01,0.66,0.19,-1.04,-0.41
2.078,-0.85,0.02,0.71,0.19,-1.04,-0.41
2.079,-0.85,0.02,0.71,0.19,-1.09,-0.41
2.08,-0.91,0.05,0.77,0.19,-1.09,-0.41
2.08,-0.91,0.05,0.77,0.19,-1.13,-0.40
2.081,-0.91,0.05,0.77,0.19,-1.16,-0.40
2.085,-0.93,0.09,0.80,0.19,-1.16,-0.40
2.085,-0.93,0.09,0.80,0.19,-1.20,-0.40
2.089,-0.98,0.10,0.83,0.19,-1.20,-0.40
2.089,-0.98,0.10,0.83,0.19,-1.23,-0.39
2.089,-0.98,0.10,0.83,0.19,-1.26,-0.38
2.092,-0.98,0.10,0.83,0.20,-1.29,-0.38
2.093,-1.04,0.15,0.87,0.20,-1.29,-0.38
2.093,-1.04,0.15,0.87,0.20,-1.32,-0.37
2.097,-1.05,0.16,0.89,0.20,-1.32,-0.37
2.097,-1.05,0.16,0.89,0.20,-1.34,-0.36
2.099,-1.05,0.16,0.89,0.21,-1.36,-0.36
2.099,-1.08,0.17,0.88,0.21,-1.36,-0.36
2.102,-1.08,0.17,0.88,0.21,-1.38,-0.35
2.102,-1.08,0.17,0.88,0.21,-1.39,-0.34
2.103,-1.11,0.19,0.92,0.21,-1.39,-0.34
2.107,-1.12,0.21,0.89,0.21,-1.39,-0.34
2.108,-1.12,0.21,0.89,0.21,-1.41,-0.33
2.109,-1.12,0.21,0.89,0.22,-1.42,-0.33
2.112,-1.16,0.23,0.90,0.22,-1.42,-0.33
2.113,-1.16,0.23,0.90,0.22,-1.43,-0.32
2.115,-1.16,0.23,0.90,0.22,-1.44,-0.31
2.14,-1.17,0.23,0.88,0.22,-1.44,-0.31
2.141,-1.17,0.23,0.88,0.22,-1.44,-0.30
2.141,-1.17,0.23,0.88,0.22,-1.44,-0.28
2.141,-1.23,0.20,0.87,0.22,-1.44,-0.28
2.141,-1.23,0.20,0.87,0.22,-1.44,-0.27
2.141,-1.27,0.11,0.84,0.22,-1.44,-0.27
2.142,-1.27,0.11,0.84,0.22,-1.44,-0.26
2.142,-1.30,0.02,0.84,0.22,-1.44,-0.26
2.142,-1.30,0.02,0.84,0.22,-1.44,-0.24
2.142,-1.30,0.02,0.84,0.22,-1.43,-0.23
2.142,-1.32,-0.07,0.80,0.22,-1.43,-0.23
2.143,-1.32,-0.07,0.80,0.22,-1.43,-0.21
2.143,-1.34,-0.18,0.77,0.22,-1.43,-0.21
2.143,-1.34,-0.18,0.77,0.21,-1.42,-0.19
2.143,-1.34,-0.18,0.77,0.21,-1.41,-0.18
2.144,-1.33,-0.26,0.75,0.21,-1.41,-0.18
2.144,-1.33,-0.26,0.75,0.21,-1.40,-0.16
2.144,-1.33,-0.26,0.75,0.20,-1.39,-0.14
2.148,-1.31,-0.37,0.73,0.20,-1.39,-0.14
2.148,-1.31,-0.37,0.73,0.20,-1.38,-0.13
2.148,-1.28,-0.46,0.70,0.20,-1.38,-0.13
2.163,-1.28,-0.46,0.70,0.19,-1.37,-0.11
2.163,-1.28,-0.46,0.70,0.19,-1.35,-0.10
2.163,-1.19,-0.56,0.67,0.19,-1.35,-0.10
2.164,-1.19,-0.56,0.67,0.18,-1.34,-0.08
2.164,-1.19,-0.56,0.67,0.17,-1.33,-0.07
2.164,-1.12,-0.61,0.60,0.17,-1.33,-0.07
2.164,-1.12,-0.61,0.60,0.16,-1.31,-0.06
2.164,-1.12,-0.61,0.60,0.16,-1.30,-0.05
2.164,-1.03,-0.63,0.57,0.16,-1.30,-0.05
2.165,-1.03,-0.63,0.57,0.14,-1.28,-0.05
2.165,-1.03,-0.63,0.57,0.13,-1.26,-0.04
2.167,-0.90,-0.61,0.50,0.13,-1.26,-0.04
2.17,-0.75,-0.50,0.44,0.13,-1.26,-0.04
2.171,-0.75,-0.50,0.44,0.12,-1.24,-0.04
2.171,-0.75,-0.50,0.44,0.10,-1.22,-0.04
2.172,-0.59,-0.40,0.37,0.10,-1.22,-0.04
2.172,-0.59,-0.40,0.37,0.09,-1.20,-0.05
2.173,-0.59,-0.40,0.37,0.07,-1.18,-0.06
2.178,-0.39,-0.28,0.30,0.07,-1.18,-0.06
2.179,-0.39,-0.28,0.30,0.05,-1.16,-0.07
2.18,-0.23,-0.11,0.25,0.05,-1.16,-0.07
2.18,-0.23,-0.11,0.25,0.03,-1.14,-0.08
2.181,-0.23,-0.11,0.25,0.02,-1.11,-0.09
2.184,-0.20,0.02,0.21,0.02,-1.11,-0.09
2.184,-0.20,0.02,0.21,-0.00,-1.09,-0.10
2.189,-0.17,0.17,0.18,-0.00,-1.09,-0.10
2.189,-0.17,0.17,0.18,-0.02,-1.07,-0.12
2.189,-0.17,0.17,0.18,-0.03,-1.05,-0.13
2.192,-0.17,0.17,0.18,-0.05,-1.03,-0.14
2.193,-0.19,0.32,0.18,-0.05,-1.03,-0.14
2.193,-0.19,0.32,0.18,-0.07,-1.01,-0.15
2.195,-0.23,0.41,0.16,-0.07,-1.01,-0.15
2.197,-0.23,0.41,0.16,-0.09,-1.00,-0.16
2.202,-0.28,0.49,0.19,-0.09,-1.00,-0.16
2.202,-0.28,0.49,0.19,-0.10,-0.98,-0.17
2.202,-0.28,0.49,0.19,-0.11,-0.97,-0.17
2.205,-0.28,0.49,0.19,-0.12,-0.96,-0.18
2.205,-0.36,0.54,0.23,-0.12,-0.96,-0.18
2.208,-0.44,0.54,0.25,-0.12,-0.96,-0.18
2.209,-0.44,0.54,0.25,-0.13,-0.96,-0.19
2.209,-0.44,0.54,0.25,-0.14,-0.95,-0.19
2.212,-0.52,0.51,0.31,-0.14,-0.95,-0.19
2.212,-0.52,0.51,0.31,-0.15,-0.95,-0.20
2.212,-0.52,0.51,0.31,-0.16,-0.95,-0.20
2.217,-0.54,0.46,0.37,-0.16,-0.95,-0.20
2.217,-0.54,0.46,0.37,-0.16,-0.96,-0.21
2.221,-0.54,0.46,0.37,-0.16,-0.96,-0.21
2.221,-0.55,0.41,0.44,-0.16,-0.96,-0.21
2.221,-0.55,0.41,0.44,-0.16,-0.97,-0.22
2.225,-0.57,0.36,0.49,-0.16,-0.97,-0.22
2.225,-0.57,0.36,0.49,-0.16,-0.98,-0.23
2.229,-0.53,0.30,0.57,-0.16,-0.98,-0.23
2.23,-0.53,0.30,0.57,-0.16,-1.00,-0.24
2.23,-0.53,0.30,0.57,-0.15,-1.02,-0.25
2.232,-0.56,0.20,0.64,-0.15,-1.02,-0.25
2.232,-0.56,0.20,0.64,-0.14,-1.04,-0.26
2.233,-0.56,0.20,0.64,-0.14,-1.05,-0.28
2.236,-0.56,0.10,0.71,-0.14,-1.05,-0.28
2.237,-0.56,0.10,0.71,-0.13,-1.08,-0.29
2.241,-0.56,0.10,0.71,-0.12,-1.11,-0.30
2.241,-0.59,0.00,0.74,-0.12,-1.11,-0.30
2.242,-0.59,0.00,0.74,-0.11,-1.13,-0.31
2.244,-0.59,0.00,0.74,-0.09,-1.16,-0.33
2.244,-0.62,-0.06,0.77,-0.09,-1.16,-0.33
2.249,-0.62,-0.14,0.79,-0.09,-1.16,-0.33
2.249,-0.62,-0.14,0.79,-0.08,-1.19,-0.34
2.25,-0.62,-0.14,0.79,-0.07,-1.22,-0.35
2.253,-0.65,-0.21,0.80,-0.07,-1.22,-0.35
2.254,-0.65,-0.21,0.80,-0.06,-1.25,-0.37
2.254,-0.65,-0.21,0.80,-0.05,-1.29,-0.38
2.256,-0.67,-0.26,0.77,-0.05,-1.29,-0.38
2.257,-0.67,-0.26,0.77,-0.03,-1.32,-0.39
2.261,-0.67,-0.26,0.77,-0.02,-1.36,-0.40
2.261,-0.69,-0.32,0.77,-0.02,-1.36,-0.40
2.267,-0.69,-0.32,0.77,-0.01,-1.39,-0.42
2.267,-0.70,-0.36,0.75,-0.01,-1.39,-0.42
2.268,-0.70,-0.36,0.75,-0.01,-1.43,-0.43
2.29,-0.72,-0.39,0.70,-0.01,-1.43,-0.43
2.29,-0.72,-0.39,0.70,0.00,-1.46,-0.44
2.29,-0.72,-0.39,0.70,0.01,-1.50,-0.45
2.29,-0.74,-0.40,0.65,0.01,-1.50,-0.45
2.29,-0.74,-0.40,0.65,0.02,-1.53,-0.46
2.291,-0.74,-0.40,0.65,0.02,-1.56,-0.47
2.291,-0.80,-0.39,0.57,0.02,-1.56,-0.47
2.291,-0.80,-0.39,0.57,0.02,-1.60,-0.48
2.291,-0.81,-0.32,0.49,0.02,-1.60,-0.48
2.291,-0.81,-0.32,0.49,0.02,-1.62,-0.48
2.291,-0.81,-0.32,0.49,0.02,-1.65,-0.48
2.291,-0.81,-0.32,0.49,0.02,-1.67,-0.49
2.291,-0.82,-0.26,0.41,0.02,-1.67,-0.49
2.292,-0.88,-0.25,0.31,0.02,-1.67,-0.49
2.292,-0.88,-0.25,0.31,0.01,-1.69,-0.48
2.292,-0.88,-0.25,0.31,0.01,-1.70,-0.48
2.292,-0.87,-0.18,0.19,0.01,-1.70,-0.48
2.292,-0.87,-0.18,0.19,-0.01,-1.71,-0.48
2.292,-0.87,-0.18,0.19,-0.02,-1.72,-0.47
2.295,-0.91,-0.11,0.06,-0.02,-1.72,-0.47
2.296,-0.91,-0.11,0.06,-0.03,-1.72,-0.46
2.3,-0.91,-0.11,0.06,-0.05,-1.71,-0.44
2.3,-0.90,0.02,-0.07,-0.05,-1.71,-0.44
2.313,-0.90,0.02,-0.07,-0.07,-1.70,-0.43
2.313,-0.85,0.17,-0.19,-0.07,-1.70,-0.43
2.314,-0.85,0.17,-0.19,-0.09,-1.68,-0.41
2.314,-0.78,0.36,-0.32,-0.09,-1.68,-0.41
2.314,-0.78,0.36,-0.32,-0.11,-1.66,-0.40
2.314,-0.78,0.36,-0.32,-0.14,-1.62,-0.39
2.314,-0.61,0.58,-0.47,-0.14,-1.62,-0.39
2.315,-0.61,0.58,-0.47,-0.17,-1.59,-0.37
2.315,-0.61,0.58,-0.47,-0.20,-1.55,-0.36
2.317,-0.47,0.82,-0.59,-0.20,-1.55,-0.36
2.318,-0.47,0.82,-0.59,-0.23,-1.50,-0.35
2.321,-0.30,1.04,-0.72,-0.23,-1.50,-0.35
2.321,-0.30,1.04,-0.72,-0.26,-1.44,-0.34
2.322,-0.30,1.04,-0.72,-0.29,-1.39,-0.33
2.324,-0.10,1.28,-0.82,-0.29,-1.39,-0.33
2.324,-0.10,1.28,-0.82,-0.32,-1.33,-0.32
2.329,-0.10,1.28,-0.82,-0.36,-1.26,-0.31
2.329,0.05,1.51,-0.92,-0.36,-1.26,-0.31
2.33,0.05,1.51,-0.92,-0.39,-1.19,-0.30
2.332,0.21,1.73,-0.96,-0.39,-1.19,-0.30
2.332,0.21,1.73,-0.96,-0.43,-1.12,-0.30
2.334,0.21,1.73,-0.96,-0.46,-1.05,-0.29
2.336,0.39,1.96,-1.02,-0.46,-1.05,-0.29
2.336,0.39,1.96,-1.02,-0.50,-0.97,-0.29
2.341,0.39,1.96,-1.02,-0.53,-0.89,-0.29
2.341,0.58,2.14,-1.06,-0.53,-0.89,-0.29
2.341,0.58,2.14,-1.06,-0.56,-0.81,-0.29
2.344,0.58,2.14,-1.06,-0.59,-0.73,-0.29
2.344,0.75,2.31,-1.05,-0.59,-0.73,-0.29
2.349,0.88,2.44,-1.06,-0.59,-0.73,-0.29
2.349,0.88,2.44,-1.06,-0.62,-0.64,-0.29
2.349,0.88,2.44,-1.06,-0.65,-0.56,-0.29
2.353,0.88,2.44,-1.06,-0.67,-0.47,-0.29
2.353,1.05,2.52,-1.04,-0.67,-0.47,-0.29
2.353,1.05,2.52,-1.04,-0.70,-0.38,-0.29
2.357,1.21,2.56,-1.00,-0.70,-0.38,-0.29
2.357,1.21,2.56,-1.00,-0.72,-0.29,-0.29
2.361,1.21,2.56,-1.00,-0.74,-0.20,-0.29
2.361,1.35,2.56,-0.95,-0.74,-0.20,-0.29
2.361,1.35,2.56,-0.95,-0.75,-0.11,-0.29
2.364,1.35,2.56,-0.95,-0.77,-0.02,-0.29
2.365,1.46,2.46,-0.89,-0.77,-0.02,-0.29
2.369,1.56,2.34,-0.79,-0.77,-0.02,-0.29
2.369,1.56,2.34,-0.79,-0.78,0.07,-0.29
2.369,1.56,2.34,-0.79,-0.78,0.15,-0.29
2.373,1.67,2.12,-0.67,-0.78,0.15,-0.29
2.373,1.67,2.12,-0.67,-0.79,0.23,-0.29
2.373,1.67,2.12,-0.67,-0.79,0.31,-0.29
2.376,1.74,1.93,-0.50,-0.79,0.31,-0.29
2.377,1.74,1.93,-0.50,-0.78,0.38,-0.30
2.381,1.74,1.93,-0.50,-0.77,0.44,-0.29
2.381,1.80,1.70,-0.34,-0.77,0.44,-0.29
2.381,1.80,1.70,-0.34,-0.76,0.51,-0.30
2.385,1.84,1.49,-0.20,-0.76,0.51,-0.30
2.385,1.84,1.49,-0.20,-0.74,0.56,-0.30
2.389,1.86,1.29,-0.07,-0.74,0.56,-0.30
2.389,1.86,1.29,-0.07,-0.72,0.61,-0.30
2.389,1.86,1.29,-0.07,-0.70,0.65,-0.30
2.393,1.90,1.12,0.07,-0.70,0.65,-0.30
2.393,1.90,1.12,0.07,-0.68,0.69,-0.29
2.393,1.90,1.12,0.07,-0.64,0.72,-0.29
2.396,1.88,0.92,0.22,-0.64,0.72,-0.29
2.397,1.88,0.92,0.22,-0.61,0.74,-0.29
2.401,1.88,0.92,0.22,-0.58,0.76,-0.29
2.401,1.92,0.75,0.36,-0.58,0.76,-0.29
2.401,1.92,0.75,0.36,-0.54,0.76,-0.29
2.405,1.92,0.75,0.36,-0.50,0.76,-0.29
2.405,1.87,0.61,0.49,-0.50,0.76,-0.29
2.409,1.86,0.51,0.58,-0.50,0.76,-0.29
2.409,1.86,0.51,0.58,-0.46,0.75,-0.29
2.409,1.86,0.51,0.58,-0.43,0.74,-0.29
2.412,1.76,0.38,0.69,-0.43,0.74,-0.29
2.412,1.76,0.38,0.69,-0.38,0.71,-0.28
2.412,1.76,0.38,0.69,-0.34,0.68,-0.28
2.418,1.62,0.34,0.79,-0.34,0.68,-0.28
2.418,1.62,0.34,0.79,-0.29,0.64,-0.27
2.426,1.62,0.34,0.79,-0.25,0.59,-0.26
2.426,1.47,0.27,0.85,-0.25,0.59,-0.26
2.427,1.47,0.27,0.85,-0.21,0.53,-0.25
2.427,1.28,0.25,0.90,-0.21,0.53,-0.25
2.427,1.28,0.25,0.90,-0.16,0.47,-0.24
2.451,1.11,0.20,0.90,-0.16,0.47,-0.24
2.451,1.11,0.20,0.90,-0.12,0.40,-0.22
2.451,1.11,0.20,0.90,-0.08,0.32,-0.21
2.451,0.98,0.12,0.89,-0.08,0.32,-0.21
2.451,0.98,0.12,0.89,-0.04,0.24,-0.20
2.452,0.98,0.12,0.89,0.00,0.15,-0.19
2.452,0.86,0.07,0.88,0.00,0.15,-0.19
2.452,0.86,0.07,0.88,0.04,0.06,-0.18
2.452,0.86,0.07,0.88,0.07,-0.03,-0.17
2.452,0.76,-0.06,0.81,0.07,-0.03,-0.17
2.452,0.76,-0.06,0.81,0.11,-0.12,-0.16
2.452,0.67,-0.18,0.74,0.11,-0.12,-0.16
2.452,0.67,-0.18,0.74,0.14,-0.22,-0.15
2.453,0.57,-0.32,0.66,0.14,-0.22,-0.15
2.453,0.57,-0.32,0.66,0.16,-0.31,-0.14
2.453,0.57,-0.32,0.66,0.18,-0.40,-0.13
2.453,0.47,-0.46,0.56,0.18,-0.40,-0.13
2.453,0.47,-0.46,0.56,0.20,-0.49,-0.12
2.456,0.47,-0.46,0.56,0.22,-0.58,-0.11
2.471,0.37,-0.63,0.49,0.22,-0.58,-0.11
2.471,0.37,-0.63,0.49,0.23,-0.67,-0.10
2.471,0.27,-0.80,0.36,0.23,-0.67,-0.10
2.471,0.27,-0.80,0.36,0.24,-0.75,-0.09
2.471,0.27,-0.80,0.36,0.25,-0.82,-0.08
2.471,0.17,-0.95,0.27,0.25,-0.82,-0.08
2.472,0.17,-0.95,0.27,0.25,-0.90,-0.07
2.472,0.06,-1.10,0.17,0.25,-0.90,-0.07
2.472,0.06,-1.10,0.17,0.25,-0.96,-0.06
2.472,0.06,-1.10,0.17,0.24,-1.02,-0.05
2.472,-0.00,-1.22,0.05,0.24,-1.02,-0.05
2.472,-0.00,-1.22,0.05,0.24,-1.08,-0.04
2.473,-0.00,-1.22,0.05,0.23,-1.13,-0.03
2.476,-0.06,-1.33,-0.05,0.23,-1.13,-0.03
2.477,-0.06,-1.33,-0.05,0.21,-1.18,-0.03
2.48,-0.13,-1.42,-0.16,0.21,-1.18,-0.03
2.481,-0.13,-1.42,-0.16,0.20,-1.23,-0.02
2.481,-0.13,-1.42,-0.16,0.18,-1.27,-0.01
2.484,-0.13,-1.42,-0.16,0.16,-1.31,-0.00
2.486,-0.17,-1.50,-0.27,0.16,-1.31,-0.00
2.488,-0.25,-1.54,-0.39,0.16,-1.31,-0.00
2.488,-0.25,-1.54,-0.39,0.14,-1.35,0.01
2.488,-0.25,-1.54,-0.39,0.12,-1.38,0.01
2.492,-0.31,-1.55,-0.47,0.12,-1.38,0.01
2.492,-0.31,-1.55,-0.47,0.09,-1.41,0.02
2.493,-0.31,-1.55,-0.47,0.06,-1.44,0.03
2.494,-0.39,-1.52,-0.57,0.06,-1.44,0.03
2.496,-0.39,-1.52,-0.57,0.03,-1.46,0.03
2.499,-0.39,-1.52,-0.57,-0.01,-1.48,0.04
2.499,-0.42,-1.49,-0.67,-0.01,-1.48,0.04
2.501,-0.42,-1.49,-0.67,-0.04,-1.50,0.05
2.504,-0.49,-1.45,-0.74,-0.04,-1.50,0.05
2.504,-0.49,-1.45,-0.74,-0.08,-1.52,0.06
2.509,-0.56,-1.33,-0.81,-0.08,-1.52,0.06
2.509,-0.56,-1.33,-0.81,-0.11,-1.53,0.06
2.51,-0.56,-1.33,-0.81,-0.15,-1.54,0.07
2.512,-0.63,-1.19,-0.89,-0.15,-1.54,0.07
2.512,-0.63,-1.19,-0.89,-0.19,-1.56,0.08
2.512,-0.63,-1.19,-0.89,-0.23,-1.56,0.08
2.516,-0.70,-1.04,-0.96,-0.23,-1.56,0.08
2.517,-0.70,-1.04,-0.96,-0.27,-1.57,0.09
2.521,-0.70,-1.04,-0.96,-0.31,-1.58,0.10
2.522,-0.70,-0.85,-1.01,-0.31,-1.58,0.10
2.522,-0.70,-0.85,-1.01,-0.35,-1.58,0.11
2.524,-0.76,-0.62,-1.04,-0.35,-1.58,0.11
2.524,-0.76,-0.62,-1.04,-0.39,-1.59,0.12
2.529,-0.76,-0.43,-1.09,-0.39,-1.59,0.12
2.529,-0.76,-0.43,-1.09,-0.43,-1.59,0.12
2.529,-0.76,-0.43,-1.09,-0.47,-1.60,0.13
2.532,-0.77,-0.23,-1.08,-0.47,-1.60,0.13
2.532,-0.77,-0.23,-1.08,-0.50,-1.60,0.13
2.532,-0.77,-0.23,-1.08,-0.54,-1.61,0.13
2.537,-0.79,-0.00,-1.10,-0.54,-1.61,0.13
2.537,-0.79,-0.00,-1.10,-0.57,-1.62,0.13
2.541,-0.79,-0.00,-1.10,-0.60,-1.62,0.13
2.541,-0.77,0.25,-1.09,-0.60,-1.62,0.13
2.541,-0.77,0.25,-1.09,-0.63,-1.63,0.13
2.544,-0.77,0.25,-1.09,-0.66,-1.64,0.13
2.545,-0.74,0.47,-1.08,-0.66,-1.64,0.13
2.549,-0.74,0.69,-1.03,-0.66,-1.64,0.13
2.549,-0.74,0.69,-1.03,-0.69,-1.64,0.12
2.549,-0.74,0.69,-1.03,-0.71,-1.65,0.11
2.553,-0.73,0.90,-0.97,-0.71,-1.65,0.11
2.553,-0.73,0.90,-0.97,-0.72,-1.66,0.10
2.553,-0.73,0.90,-0.97,-0.73,-1.67,0.09
2.556,-0.68,1.08,-0.88,-0.73,-1.67,0.09
2.556,-0.68,1.08,-0.88,-0.75,-1.67,0.08
2.561,-0.68,1.08,-0.88,-0.75,-1.67,0.06
2.561,-0.68,1.22,-0.77,-0.75,-1.67,0.06
2.561,-0.68,1.22,-0.77,-0.76,-1.68,0.04
2.564,-0.68,1.22,-0.77,-0.76,-1.68,0.02
2.565,-0.68,1.32,-0.67,-0.76,-1.68,0.02
2.569,-0.67,1.37,-0.55,-0.76,-1.68,0.02
2.569,-0.67,1.37,-0.55,-0.75,-1.68,0.00
2.569,-0.67,1.37,-0.55,-0.75,-1.68,-0.02
2.573,-0.70,1.40,-0.45,-0.75,-1.68,-0.02
2.573,-0.70,1.40,-0.45,-0.74,-1.68,-0.05
2.574,-0.70,1.40,-0.45,-0.72,-1.67,-0.07
2.578,-0.73,1.33,-0.33,-0.72,-1.67,-0.07
2.578,-0.73,1.33,-0.33,-0.71,-1.67,-0.10
2.606,-0.77,1.25,-0.24,-0.71,-1.67,-0.10
2.606,-0.77,1.25,-0.24,-0.69,-1.66,-0.13
2.606,-0.77,1.25,-0.24,-0.67,-1.66,-0.15
2.606,-0.82,1.14,-0.17,-0.67,-1.66,-0.15
2.606,-0.82,1.14,-0.17,-0.64,-1.65,-0.18
2.606,-0.90,1.00,-0.13,-0.64,-1.65,-0.18
2.607,-0.90,1.00,-0.13,-0.62,-1.65,-0.21
2.607,-0.90,1.00,-0.13,-0.59,-1.64,-0.23
2.607,-1.04,0.83,-0.10,-0.59,-1.64,-0.23
2.607,-1.04,0.83,-0.10,-0.57,-1.64,-0.26
2.607,-1.04,0.83,-0.10,-0.54,-1.63,-0.28
2.607,-1.14,0.66,-0.10,-0.54,-1.63,-0.28
2.607,-1.14,0.66,-0.10,-0.51,-1.63,-0.30
2.607,-1.14,0.66,-0.10,-0.49,-1.62,-0.32
2.608,-1.27,0.49,-0.09,-0.49,-1.62,-0.32
2.608,-1.27,0.49,-0.09,-0.46,-1.62,-0.34
2.608,-1.27,0.49,-0.09,-0.44,-1.62,-0.36
2.608,-1.38,0.29,-0.11,-0.44,-1.62,-0.36
2.611,-1.38,0.29,-0.11,-0.41,-1.62,-0.37
2.611,-1.50,0.14,-0.15,-0.41,-1.62,-0.37
2.626,-1.50,0.14,-0.15,-0.39,-1.63,-0.39
2.626,-1.62,0.01,-0.17,-0.39,-1.63,-0.39
2.627,-1.62,0.01,-0.17,-0.36,-1.63,-0.40
2.627,-1.62,0.01,-0.17,-0.34,-1.64,-0.41
2.627,-1.76,-0.08,-0.21,-0.34,-1.64,-0.41
2.627,-1.76,-0.08,-0.21,-0.32,-1.66,-0.42
2.627,-1.76,-0.08,-0.21,-0.30,-1.67,-0.43
2.627,-1.88,-0.18,-0.24,-0.30,-1.67,-0.43
2.628,-1.88,-0.18,-0.24,-0.28,-1.69,-0.43
2.628,-1.88,-0.18,-0.24,-0.26,-1.71,-0.44
2.628,-1.97,-0.22,-0.28,-0.26,-1.71,-0.44
2.628,-2.09,-0.26,-0.32,-0.26,-1.71,-0.44
2.631,-2.09,-0.26,-0.32,-0.25,-1.74,-0.44
2.631,-2.09,-0.26,-0.32,-0.23,-1.77,-0.44
2.633,-2.18,-0.28,-0.35,-0.23,-1.77,-0.44
2.634,-2.18,-0.28,-0.35,-0.22,-1.80,-0.44
2.634,-2.18,-0.28,-0.35,-0.21,-1.83,-0.44
2.636,-2.27,-0.29,-0.38,-0.21,-1.83,-0.44
2.638,-2.27,-0.29,-0.38,-0.19,-1.87,-0.43
2.639,-2.27,-0.29,-0.38,-0.18,-1.90,-0.43
2.639,-2.29,-0.34,-0.38,-0.18,-1.90,-0.43
2.642,-2.29,-0.34,-0.38,-0.17,-1.95,-0.42
2.643,-2.29,-0.34,-0.38,-0.16,-1.98,-0.42
2.644,-2.38,-0.33,-0.37,-0.16,-1.98,-0.42
2.649,-2.38,-0.33,-0.37,-0.15,-2.02,-0.41
2.649,-2.41,-0.35,-0.37,-0.15,-2.02,-0.41
2.65,-2.41,-0.35,-0.37,-0.14,-2.06,-0.41
2.65,-2.46,-0.38,-0.37,-0.14,-2.06,-0.41
2.65,-2.46,-0.38,-0.37,-0.13,-2.10,-0.40
2.654,-2.46,-0.38,-0.37,-0.12,-2.14,-0.39
2.654,-2.53,-0.41,-0.37,-0.12,-2.14,-0.39
2.658,-2.53,-0.41,-0.37,-0.11,-2.18,-0.39
2.658,-2.53,-0.41,-0.37,-0.10,-2.21,-0.38
2.658,-2.58,-0.42,-0.36,-0.10,-2.21,-0.38
2.662,-2.58,-0.42,-0.36,-0.09,-2.25,-0.37
2.662,-2.57,-0.47,-0.37,-0.09,-2.25,-0.37
2.663,-2.57,-0.47,-0.37,-0.09,-2.27,-0.36
2.667,-2.63,-0.49,-0.36,-0.09,-2.27,-0.36
2.668,-2.63,-0.49,-0.36,-0.08,-2.30,-0.35
2.67,-2.63,-0.49,-0.36,-0.08,-2.32,-0.34
2.671,-2.68,-0.55,-0.35,-0.08,-2.32,-0.34
2.671,-2.68,-0.55,-0.35,-0.07,-2.34,-0.33
2.675,-2.68,-0.55,-0.35,-0.07,-2.35,-0.32
2.675,-2.70,-0.58,-0.36,-0.07,-2.35,-0.32
2.678,-2.70,-0.58,-0.36,-0.07,-2.36,-0.30
2.679,-2.70,-0.58,-0.36,-0.07,-2.36,-0.29
2.679,-2.73,-0.63,-0.37,-0.07,-2.36,-0.29
2.683,-2.74,-0.69,-0.36,-0.07,-2.36,-0.29
2.687,-2.74,-0.69,-0.36,-0.07,-2.36,-0.27
2.687,-2.74,-0.69,-0.36,-0.07,-2.35,-0.26
2.688,-2.77,-0.74,-0.36,-0.07,-2.35,-0.26
2.688,-2.77,-0.74,-0.36,-0.08,-2.33,-0.24
2.69,-2.77,-0.74,-0.36,-0.08,-2.31,-0.22
2.691,-2.75,-0.84,-0.35,-0.08,-2.31,-0.22
2.691,-2.75,-0.84,-0.35,-0.08,-2.28,-0.20
2.693,-2.75,-0.84,-0.35,-0.09,-2.25,-0.17
2.694,-2.79,-0.91,-0.32,-0.09,-2.25,-0.17
2.697,-2.79,-0.91,-0.32,-0.09,-2.21,-0.15
2.699,-2.79,-0.91,-0.32,-0.09,-2.17,-0.13
2.7,-2.75,-0.99,-0.30,-0.09,-2.17,-0.13
2.703,-2.75,-0.99,-0.30,-0.09,-2.11,-0.10
2.705,-2.71,-1.05,-0.24,-0.09,-2.11,-0.10
2.705,-2.71,-1.05,-0.24,-0.10,-2.06,-0.07
2.709,-2.71,-1.05,-0.24,-0.09,-2.00,-0.05
2.709,-2.65,-1.11,-0.17,-0.09,-2.00,-0.05
2.709,-2.65,-1.11,-0.17,-0.09,-1.93,-0.02
2.712,-2.45,-1.18,-0.11,-0.09,-1.93,-0.02
2.712,-2.45,-1.18,-0.11,-0.09,-1.86,-0.00
2.713,-2.45,-1.18,-0.11,-0.09,-1.79,0.02
2.716,-2.07,-1.26,-0.07,-0.09,-1.79,0.02
2.717,-2.07,-1.26,-0.07,-0.09,-1.71,0.02
2.72,-2.07,-1.26,-0.07,-0.09,-1.63,0.03
2.721,-1.60,-1.36,-0.03,-0.09,-1.63,0.03
2.721,-1.60,-1.36,-0.03,-0.08,-1.54,0.02
2.725,-1.17,-1.39,-0.02,-0.08,-1.54,0.02
2.725,-1.17,-1.39,-0.02,-0.08,-1.46,0.01
2.728,-0.82,-1.39,-0.01,-0.08,-1.46,0.01
2.728,-0.82,-1.39,-0.01,-0.08,-1.37,0.00
2.729,-0.82,-1.39,-0.01,-0.08,-1.27,-0.01
2.753,-0.57,-1.37,-0.04,-0.08,-1.27,-0.01
2.754,-0.57,-1.37,-0.04,-0.07,-1.18,-0.02
2.754,-0.57,-1.37,-0.04,-0.07,-1.08,-0.04
2.754,-0.40,-1.25,-0.07,-0.07,-1.08,-0.04
2.754,-0.40,-1.25,-0.07,-0.07,-0.98,-0.05
2.754,-0.40,-1.25,-0.07,-0.07,-0.89,-0.06
2.755,-0.32,-1.20,-0.12,-0.07,-0.89,-0.06
2.755,-0.32,-1.20,-0.12,-0.08,-0.79,-0.07
2.755,-0.26,-1.11,-0.16,-0.08,-0.79,-0.07
2.755,-0.26,-1.11,-0.16,-0.08,-0.69,-0.09
2.755,-0.24,-1.06,-0.19,-0.08,-0.69,-0.09
2.756,-0.24,-1.06,-0.19,-0.08,-0.59,-0.09
2.756,-0.24,-1.06,-0.19,-0.08,-0.50,-0.10
2.756,-0.18,-0.98,-0.24,-0.08,-0.50,-0.10
2.756,-0.17,-0.94,-0.27,-0.08,-0.50,-0.10
2.759,-0.17,-0.94,-0.27,-0.08,-0.40,-0.10
2.76,-0.17,-0.94,-0.27,-0.09,-0.31,-0.11
2.76,-0.10,-0.88,-0.33,-0.09,-0.31,-0.11
2.763,-0.10,-0.88,-0.33,-0.09,-0.22,-0.11
2.763,-0.10,-0.88,-0.33,-0.10,-0.12,-0.11
2.764,-0.10,-0.88,-0.33,-0.11,-0.03,-0.11
2.784,-0.10,-0.88,-0.33,-0.11,0.06,-0.11
2.784,-0.05,-0.84,-0.39,-0.11,0.06,-0.11
2.784,-0.03,-0.82,-0.44,-0.11,0.06,-0.11
2.784,-0.03,-0.82,-0.44,-0.12,0.14,-0.11
2.784,-0.03,-0.82,-0.44,-0.13,0.23,-0.11
2.785,-0.03,-0.82,-0.44,-0.13,0.31,-0.11
2.785,-0.03,-0.82,-0.44,-0.14,0.39,-0.10
2.785,0.03,-0.76,-0.47,-0.14,0.39,-0.10
2.785,0.11,-0.72,-0.52,-0.14,0.39,-0.10
2.785,0.11,-0.72,-0.52,-0.15,0.47,-0.10
2.786,0.15,-0.65,-0.55,-0.15,0.47,-0.10
2.786,0.15,-0.65,-0.55,-0.16,0.55,-0.10
2.786,0.15,-0.65,-0.55,-0.17,0.62,-0.10
2.786,0.19,-0.57,-0.59,-0.17,0.62,-0.10
2.786,0.19,-0.57,-0.59,-0.18,0.69,-0.11
2.795,0.19,-0.57,-0.59,-0.19,0.76,-0.11
2.795,0.22,-0.48,-0.63,-0.19,0.76,-0.11
2.796,0.22,-0.48,-0.63,-0.21,0.82,-0.11
2.796,0.26,-0.42,-0.66,-0.21,0.82,-0.11
2.796,0.26,-0.42,-0.66,-0.22,0.88,-0.11
2.796,0.28,-0.37,-0.70,-0.22,0.88,-0.11
2.797,0.28,-0.37,-0.70,-0.23,0.93,-0.11
2.797,0.28,-0.37,-0.70,-0.25,0.98,-0.12
2.809,0.29,-0.33,-0.69,-0.25,0.98,-0.12
2.809,0.29,-0.33,-0.69,-0.26,1.02,-0.12
2.809,0.29,-0.33,-0.69,-0.27,1.05,-0.13
2.809,0.26,-0.30,-0.73,-0.27,1.05,-0.13
2.809,0.26,-0.30,-0.73,-0.28,1.08,-0.13
2.809,0.23,-0.34,-0.73,-0.28,1.08,-0.13
2.81,0.23,-0.34,-0.73,-0.30,1.10,-0.13
2.81,0.23,-0.34,-0.73,-0.31,1.12,-0.14
2.812,0.19,-0.41,-0.73,-0.31,1.12,-0.14
2.812,0.19,-0.41,-0.73,-0.32,1.13,-0.14
2.817,0.10,-0.50,-0.69,-0.32,1.13,-0.14
2.817,0.10,-0.50,-0.69,-0.33,1.14,-0.14
2.817,0.10,-0.50,-0.69,-0.35,1.14,-0.13
2.819,0.05,-0.61,-0.64,-0.35,1.14,-0.13
2.82,0.05,-0.61,-0.64,-0.36,1.12,-0.13
2.82,0.05,-0.61,-0.64,-0.36,1.11,-0.13
2.824,-0.00,-0.70,-0.61,-0.36,1.11,-0.13
2.824,-0.00,-0.70,-0.61,-0.37,1.09,-0.12
2.828,-0.02,-0.84,-0.55,-0.37,1.09,-0.12
2.828,-0.02,-0.84,-0.55,-0.38,1.06,-0.11
2.83,-0.02,-0.84,-0.55,-0.38,1.04,-0.11
2.835,-0.05,-0.93,-0.49,-0.38,1.04,-0.11
2.835,-0.05,-0.93,-0.49,-0.38,1.00,-0.10
2.835,-0.02,-1.00,-0.44,-0.38,1.00,-0.10
2.836,-0.02,-1.00,-0.44,-0.38,0.96,-0.09
2.836,-0.02,-1.00,-0.44,-0.38,0.93,-0.09
2.84,-0.02,-1.09,-0.41,-0.38,0.93,-0.09
2.84,-0.02,-1.09,-0.41,-0.38,0.89,-0.08
2.84,-0.02,-1.09,-0.41,-0.38,0.84,-0.07
2.844,-0.03,-1.12,-0.37,-0.38,0.84,-0.07
2.845,-0.03,-1.12,-0.37,-0.37,0.80,-0.06
2.848,-0.02,-1.11,-0.32,-0.37,0.80,-0.06
2.849,-0.02,-1.11,-0.32,-0.37,0.76,-0.06
2.849,-0.02,-1.11,-0.32,-0.36,0.72,-0.05
2.851,-0.02,-1.08,-0.27,-0.36,0.72,-0.05
2.851,-0.02,-1.08,-0.27,-0.35,0.68,-0.04
2.856,-0.03,-0.99,-0.21,-0.35,0.68,-0.04
2.856,-0.03,-0.99,-0.21,-0.34,0.64,-0.03
2.856,-0.03,-0.99,-0.21,-0.33,0.60,-0.02
2.86,-0.01,-0.89,-0.15,-0.33,0.60,-0.02
2.86,-0.01,-0.89,-0.15,-0.31,0.56,-0.01
2.86,-0.01,-0.89,-0.15,-0.30,0.52,-0.01
2.864,-0.02,-0.76,-0.11,-0.30,0.52,-0.01
2.864,-0.02,-0.76,-0.11,-0.29,0.48,0.00
2.868,-0.00,-0.59,-0.03,-0.29,0.48,0.00
2.868,-0.00,-0.59,-0.03,-0.27,0.44,0.01
2.868,-0.00,-0.59,-0.03,-0.25,0.40,0.02
2.872,-0.03,-0.44,0.00,-0.25,0.40,0.02
2.873,-0.03,-0.44,0.00,-0.23,0.37,0.03
2.876,-0.03,-0.31,0.07,-0.23,0.37,0.03
2.876,-0.03,-0.31,0.07,-0.21,0.33,0.03
2.876,-0.03,-0.31,0.07,-0.19,0.29,0.04
2.88,-0.09,-0.17,0.13,-0.19,0.29,0.04
2.88,-0.09,-0.17,0.13,-0.17,0.26,0.05
2.881,-0.09,-0.17,0.13,-0.15,0.22,0.07
2.884,-0.11,-0.07,0.18,-0.15,0.22,0.07
2.884,-0.11,-0.07,0.18,-0.12,0.19,0.08
2.898,-0.11,-0.07,0.18,-0.10,0.16,0.09
2.898,-0.16,-0.01,0.24,-0.10,0.16,0.09
2.898,-0.16,-0.01,0.24,-0.08,0.13,0.11
2.899,-0.21,0.05,0.29,-0.08,0.13,0.11
2.899,-0.21,0.05,0.29,-0.05,0.10,0.12
2.899,-0.21,0.05,0.29,-0.03,0.08,0.14
2.899,-0.22,0.07,0.39,-0.03,0.08,0.14
2.899,-0.22,0.07,0.39,0.00,0.05,0.16
2.899,-0.22,0.07,0.39,0.03,0.03,0.18
2.899,-0.29,0.05,0.46,0.03,0.03,0.18
2.901,-0.29,0.05,0.46,0.06,0.01,0.20
2.904,-0.32,-0.00,0.56,0.06,0.01,0.20
2.905,-0.32,-0.00,0.56,0.09,0.00,0.22
2.908,-0.31,-0.09,0.69,0.09,0.00,0.22
2.908,-0.31,-0.09,0.69,0.13,-0.01,0.23
2.908,-0.31,-0.09,0.69,0.16,-0.01,0.25
2.912,-0.34,-0.21,0.80,0.16,-0.01,0.25
2.912,-0.34,-0.21,0.80,0.20,-0.01,0.27
2.916,-0.33,-0.36,0.92,0.20,-0.01,0.27
2.916,-0.33,-0.36,0.92,0.24,-0.01,0.29
2.928,-0.33,-0.36,0.92,0.28,0.00,0.31
2.928,-0.32,-0.56,1.04,0.28,0.00,0.31
2.928,-0.32,-0.56,1.04,0.33,0.01,0.32
2.929,-0.32,-0.56,1.04,0.37,0.03,0.33
2.929,-0.28,-0.74,1.16,0.37,0.03,0.33
2.929,-0.28,-0.74,1.16,0.41,0.05,0.35
2.929,-0.28,-0.74,1.16,0.46,0.07,0.36
2.929,-0.25,-0.95,1.19,0.46,0.07,0.36
2.929,-0.25,-0.95,1.19,0.50,0.09,0.37
2.932,-0.16,-1.17,1.17,0.50,0.09,0.37
2.932,-0.16,-1.17,1.17,0.53,0.11,0.38
2.936,-0.08,-1.34,1.03,0.53,0.11,0.38
2.936,-0.08,-1.34,1.03,0.57,0.13,0.39
2.936,-0.08,-1.34,1.03,0.60,0.14,0.39
2.94,-0.08,-1.34,1.03,0.62,0.15,0.39
2.94,0.03,-1.47,0.84,0.62,0.15,0.39
2.94,0.03,-1.47,0.84,0.64,0.15,0.39
2.944,0.13,-1.55,0.59,0.64,0.15,0.39
2.944,0.13,-1.55,0.59,0.65,0.15,0.39
2.949,0.24,-1.54,0.33,0.65,0.15,0.39
2.949,0.24,-1.54,0.33,0.65,0.14,0.39
2.949,0.24,-1.54,0.33,0.66,0.13,0.39
2.951,0.30,-1.51,0.07,0.66,0.13,0.39
2.951,0.30,-1.51,0.07,0.65,0.12,0.39
2.956,0.30,-1.44,-0.16,0.65,0.12,0.39
2.956,0.30,-1.44,-0.16,0.64,0.10,0.39
2.956,0.30,-1.44,-0.16,0.63,0.08,0.39
2.96,0.30,-1.44,-0.16,0.62,0.07,0.38
2.96,0.34,-1.34,-0.32,0.62,0.07,0.38
2.96,0.34,-1.34,-0.32,0.60,0.05,0.38
2.964,0.28,-1.15,-0.48,0.60,0.05,0.38
2.964,0.28,-1.15,-0.48,0.58,0.03,0.38
2.969,0.22,-0.93,-0.59,0.58,0.03,0.38
2.969,0.22,-0.93,-0.59,0.55,0.00,0.38
2.969,0.22,-0.93,-0.59,0.53,-0.02,0.38
2.972,0.12,-0.68,-0.70,0.53,-0.02,0.38
2.972,0.12,-0.68,-0.70,0.50,-0.05,0.39
2.976,0.01,-0.38,-0.77,0.50,-0.05,0.39
2.976,0.01,-0.38,-0.77,0.48,-0.08,0.39
2.976,0.01,-0.38,-0.77,0.45,-0.11,0.39
2.979,0.01,-0.38,-0.77,0.42,-0.14,0.39
2.98,-0.14,-0.06,-0.80,0.42,-0.14,0.39
2.98,-0.14,-0.06,-0.80,0.39,-0.17,0.39
2.987,-0.27,0.28,-0.85,0.39,-0.17,0.39
2.988,-0.27,0.28,-0.85,0.36,-0.20,0.39
2.988,-0.44,0.60,-0.81,0.36,-0.20,0.39
2.988,-0.44,0.60,-0.81,0.34,-0.24,0.40
2.988,-0.44,0.60,-0.81,0.31,-0.28,0.40
2.992,-0.44,0.60,-0.81,0.29,-0.32,0.40
2.992,-0.61,0.90,-0.79,0.29,-0.32,0.40
2.996,-0.77,1.17,-0.77,0.29,-0.32,0.40
2.996,-0.77,1.17,-0.77,0.26,-0.35,0.41
2.996,-0.77,1.17,-0.77,0.24,-0.40,0.41
3.0,-0.77,1.17,-0.77,0.22,-0.44,0.41
3.0,-0.90,1.37,-0.72,0.22,-0.44,0.41
3.001,-0.90,1.37,-0.72,0.20,-0.49,0.42
3.003,-1.02,1.55,-0.66,0.20,-0.49,0.42
3.004,-1.02,1.55,-0.66,0.18,-0.53,0.42
3.009,-1.02,1.55,-0.66,0.16,-0.58,0.42
3.009,-1.14,1.68,-0.56,0.16,-0.58,0.42
3.009,-1.14,1.68,-0.56,0.15,-0.63,0.42
3.013,-1.22,1.77,-0.47,0.15,-0.63,0.42
3.013,-1.22,1.77,-0.47,0.14,-0.68,0.42
3.017,-1.29,1.81,-0.34,0.14,-0.68,0.42
3.018,-1.29,1.81,-0.34,0.13,-0.73,0.41
3.018,-1.29,1.81,-0.34,0.12,-0.78,0.41
3.02,-1.29,1.81,-0.34,0.12,-0.84,0.40
3.021,-1.35,1.83,-0.19,0.12,-0.84,0.40
3.021,-1.35,1.83,-0.19,0.12,-0.88,0.39
3.024,-1.40,1.80,-0.09,0.12,-0.88,0.39
3.024,-1.40,1.80,-0.09,0.12,-0.93,0.38
3.028,-1.44,1.72,0.06,0.12,-0.93,0.38
3.028,-1.44,1.72,0.06,0.12,-0.98,0.37
3.028,-1.44,1.72,0.06,0.13,-1.03,0.35
3.032,-1.50,1.63,0.21,0.13,-1.03,0.35
3.032,-1.50,1.63,0.21,0.14,-1.07,0.34
3.036,-1.54,1.47,0.33,0.14,-1.07,0.34
3.037,-1.54,1.47,0.33,0.15,-1.11,0.33
3.037,-1.54,1.47,0.33,0.16,-1.14,0.31
3.063,-1.54,1.47,0.33,0.18,-1.18,0.30
3.064,-1.61,1.26,0.46,0.18,-1.18,0.30
3.064,-1.61,1.26,0.46,0.20,-1.20,0.28
3.064,-1.73,1.01,0.59,0.20,-1.20,0.28
3.064,-1.73,1.01,0.59,0.22,-1.23,0.27
3.065,-1.73,1.01,0.59,0.24,-1.24,0.26
3.065,-1.85,0.73,0.71,0.24,-1.24,0.26
3.065,-1.85,0.73,0.71,0.26,-1.26,0.26
3.065,-1.91,0.46,0.75,0.26,-1.26,0.26
3.065,-1.91,0.46,0.75,0.28,-1.26,0.25
3.065,-2.06,0.20,0.81,0.28,-1.26,0.25
3.065,-2.06,0.20,0.81,0.31,-1.27,0.25
3.065,-2.06,0.20,0.81,0.33,-1.27,0.26
3.066,-2.06,0.20,0.81,0.35,-1.27,0.26
3.066,-2.11,-0.02,0.83,0.35,-1.27,0.26
3.066,-2.11,-0.02,0.83,0.37,-1.26,0.26
3.066,-2.15,-0.21,0.80,0.37,-1.26,0.26
3.066,-2.15,-0.21,0.80,0.39,-1.25,0.27
3.07,-2.16,-0.40,0.77,0.39,-1.25,0.27
3.07,-2.16,-0.40,0.77,0.41,-1.24,0.27
3.07,-2.16,-0.40,0.77,0.42,-1.24,0.28
3.083,-2.14,-0.47,0.69,0.42,-1.24,0.28
3.083,-2.14,-0.47,0.69,0.44,-1.22,0.28
3.084,-2.14,-0.47,0.69,0.45,-1.22,0.28
3.084,-2.14,-0.47,0.69,0.45,-1.21,0.28
3.084,-2.05,-0.55,0.57,0.45,-1.21,0.28
3.084,-1.91,-0.54,0.40,0.45,-1.21,0.28
3.084,-1.91,-0.54,0.40,0.45,-1.20,0.27
3.085,-1.91,-0.54,0.40,0.45,-1.19,0.26
3.085,-1.67,-0.50,0.24,0.45,-1.19,0.26
3.087,-1.67,-0.50,0.24,0.45,-1.18,0.25
3.09,-1.67,-0.50,0.24,0.44,-1.18,0.23
3.09,-1.48,-0.42,0.10,0.44,-1.18,0.23
3.091,-1.48,-0.42,0.10,0.43,-1.18,0.21
3.092,-1.32,-0.36,-0.08,0.43,-1.18,0.21
3.092,-1.32,-0.36,-0.08,0.42,-1.18,0.19
3.094,-1.21,-0.30,-0.23,0.42,-1.18,0.19
3.094,-1.21,-0.30,-0.23,0.40,-1.17,0.17
3.095,-1.21,-0.30,-0.23,0.38,-1.17,0.15
3.098,-1.21,-0.30,-0.23,0.35,-1.18,0.13
3.098,-1.13,-0.27,-0.40,0.35,-1.18,0.13
3.101,-1.13,-0.27,-0.40,0.33,-1.18,0.11
3.102,-1.14,-0.25,-0.54,0.33,-1.18,0.11
3.104,-1.14,-0.25,-0.54,0.30,-1.19,0.09
3.106,-1.13,-0.27,-0.69,0.30,-1.19,0.09
3.106,-1.13,-0.27,-0.69,0.27,-1.19,0.08
3.108,-1.13,-0.27,-0.69,0.24,-1.19,0.07
3.112,-1.11,-0.32,-0.77,0.24,-1.19,0.07
3.112,-1.11,-0.32,-0.77,0.20,-1.20,0.06
3.115,-1.08,-0.36,-0.85,0.20,-1.20,0.06
3.118,-1.08,-0.36,-0.85,0.17,-1.20,0.05
3.118,-1.08,-0.36,-0.85,0.13,-1.20,0.04
3.121,-1.08,-0.36,-0.85,0.10,-1.20,0.03
3.121,-1.08,-0.36,-0.85,0.06,-1.19,0.03
3.121,-1.02,-0.41,-0.87,0.06,-1.19,0.03
3.124,-0.92,-0.52,-0.89,0.06,-1.19,0.03
3.124,-0.92,-0.52,-0.89,0.03,-1.19,0.02
3.128,-0.84,-0.61,-0.88,0.03,-1.19,0.02
3.129,-0.84,-0.61,-0.88,-0.01,-1.18,0.02
3.13,-0.84,-0.61,-0.88,-0.04,-1.17,0.01
3.132,-0.70,-0.74,-0.87,-0.04,-1.17,0.01
3.132,-0.70,-0.74,-0.87,-0.07,-1.16,0.01
3.138,-0.57,-0.86,-0.82,-0.07,-1.16,0.01
3.139,-0.57,-0.86,-0.82,-0.10,-1.14,0.01
3.139,-0.57,-0.86,-0.82,-0.13,-1.13,0.00
3.14,-0.57,-0.86,-0.82,-0.16,-1.10,-0.00
3.14,-0.45,-0.94,-0.80,-0.16,-1.10,-0.00
3.14,-0.45,-0.94,-0.80,-0.19,-1.08,-0.00
3.144,-0.32,-0.95,-0.77,-0.19,-1.08,-0.00
3.145,-0.32,-0.95,-0.77,-0.22,-1.05,-0.01
3.148,-0.32,-0.95,-0.77,-0.24,-1.02,-0.01
3.148,-0.18,-0.92,-0.72,-0.24,-1.02,-0.01
3.149,-0.18,-0.92,-0.72,-0.27,-0.98,-0.01
3.154,-0.09,-0.88,-0.73,-0.27,-0.98,-0.01
3.155,-0.09,-0.88,-0.73,-0.29,-0.95,-0.02
3.156,-0.09,-0.88,-0.73,-0.32,-0.91,-0.02
3.156,-0.09,-0.88,-0.73,-0.34,-0.86,-0.03
3.157,0.03,-0.77,-0.71,-0.34,-0.86,-0.03
3.16,0.03,-0.77,-0.71,-0.36,-0.82,-0.03
3.161,0.17,-0.67,-0.69,-0.36,-0.82,-0.03
3.161,0.17,-0.67,-0.69,-0.37,-0.77,-0.04
3.164,0.29,-0.50,-0.70,-0.37,-0.77,-0.04
3.165,0.29,-0.50,-0.70,-0.39,-0.72,-0.04
3.168,0.42,-0.29,-0.68,-0.39,-0.72,-0.04
3.168,0.42,-0.29,-0.68,-0.41,-0.66,-0.05
3.168,0.42,-0.29,-0.68,-0.42,-0.60,-0.06
3.172,0.52,-0.06,-0.68,-0.42,-0.60,-0.06
3.173,0.52,-0.06,-0.68,-0.43,-0.54,-0.06
3.177,0.59,0.11,-0.67,-0.43,-0.54,-0.06
3.177,0.59,0.11,-0.67,-0.44,-0.48,-0.07
3.178,0.59,0.11,-0.67,-0.45,-0.42,-0.08
3.181,0.59,0.11,-0.67,-0.46,-0.36,-0.08
3.181,0.64,0.27,-0.65,-0.46,-0.36,-0.08
3.181,0.64,0.27,-0.65,-0.47,-0.29,-0.08
3.185,0.66,0.40,-0.63,-0.47,-0.29,-0.08
3.186,0.66,0.40,-0.63,-0.48,-0.23,-0.08
3.189,0.66,0.40,-0.63,-0.48,-0.16,-0.08
3.19,0.68,0.50,-0.62,-0.48,-0.16,-0.08
3.19,0.68,0.50,-0.62,-0.48,-0.10,-0.07
3.194,0.68,0.50,-0.62,-0.49,-0.03,-0.07
3.194,0.69,0.55,-0.58,-0.49,-0.03,-0.07
3.222,0.68,0.59,-0.53,-0.49,-0.03,-0.07
3.223,0.68,0.59,-0.53,-0.49,0.04,-0.06
3.223,0.68,0.59,-0.53,-0.48,0.11,-0.04
3.223,0.68,0.59,-0.53,-0.48,0.18,-0.03
3.223,0.69,0.60,-0.50,-0.48,0.18,-0.03
3.224,0.69,0.60,-0.50,-0.48,0.24,-0.02
3.224,0.73,0.54,-0.46,-0.48,0.24,-0.02
3.224,0.73,0.54,-0.46,-0.47,0.31,-0.00
3.224,0.77,0.53,-0.46,-0.47,0.31,-0.00
3.225,0.77,0.53,-0.46,-0.46,0.37,0.02
3.225,0.77,0.53,-0.46,-0.45,0.43,0.03
3.225,0.82,0.47,-0.41,-0.45,0.43,0.03
3.225,0.82,0.47,-0.41,-0.44,0.50,0.05
3.225,0.82,0.47,-0.41,-0.43,0.55,0.07
3.225,0.85,0.43,-0.40,-0.43,0.55,0.07
3.226,0.85,0.43,-0.40,-0.43,0.61,0.09
3.226,0.93,0.37,-0.40,-0.43,0.61,0.09
3.226,0.93,0.37,-0.40,-0.41,0.66,0.10
3.226,0.93,0.37,-0.40,-0.40,0.71,0.12
3.226,1.00,0.36,-0.38,-0.40,0.71,0.12
3.246,1.00,0.36,-0.38,-0.39,0.76,0.13
3.247,1.11,0.37,-0.37,-0.39,0.76,0.13
3.247,1.11,0.37,-0.37,-0.37,0.80,0.14
3.247,1.11,0.37,-0.37,-0.36,0.84,0.15
3.247,1.24,0.37,-0.35,-0.36,0.84,0.15
3.247,1.24,0.37,-0.35,-0.34,0.87,0.16
3.248,1.24,0.37,-0.35,-0.33,0.91,0.16
3.248,1.32,0.37,-0.33,-0.33,0.91,0.16
3.248,1.32,0.37,-0.33,-0.31,0.93,0.16
3.248,1.32,0.37,-0.33,-0.29,0.96,0.16
3.248,1.43,0.39,-0.29,-0.29,0.96,0.16
3.249,1.43,0.39,-0.29,-0.28,0.98,0.16
3.249,1.52,0.37,-0.25,-0.28,0.98,0.16
3.249,1.52,0.37,-0.25,-0.26,0.99,0.16
3.249,1.61,0.35,-0.21,-0.26,0.99,0.16
3.249,1.61,0.35,-0.21,-0.24,1.00,0.15
3.25,1.61,0.35,-0.21,-0.21,1.01,0.14
3.257,1.68,0.33,-0.19,-0.21,1.01,0.14
3.258,1.68,0.33,-0.19,-0.19,1.01,0.13
3.258,1.73,0.35,-0.14,-0.19,1.01,0.13
3.259,1.73,0.35,-0.14,-0.17,1.01,0.12
3.259,1.73,0.35,-0.14,-0.14,1.00,0.11
3.259,1.73,0.35,-0.14,-0.12,0.99,0.09
3.26,1.77,0.36,-0.09,-0.12,0.99,0.09
3.261,1.77,0.36,-0.09,-0.09,0.98,0.08
3.264,1.77,0.38,-0.07,-0.09,0.98,0.08
3.265,1.77,0.38,-0.07,-0.07,0.96,0.06
3.268,1.77,0.38,-0.07,-0.04,0.94,0.05
3.269,1.76,0.39,-0.04,-0.04,0.94,0.05
3.269,1.76,0.39,-0.04,-0.01,0.91,0.03
3.271,1.73,0.47,0.01,-0.01,0.91,0.03
3.272,1.73,0.47,0.01,0.02,0.88,0.02
3.276,1.57,0.52,0.01,0.02,0.88,0.02
3.276,1.57,0.52,0.01,0.04,0.84,0.01
3.276,1.57,0.52,0.01,0.07,0.80,-0.00
3.28,1.57,0.52,0.01,0.10,0.75,-0.00
3.28,1.31,0.58,0.01,0.10,0.75,-0.00
3.28,1.31,0.58,0.01,0.13,0.70,0.00
3.284,0.96,0.61,0.05,0.13,0.70,0.00
3.284,0.96,0.61,0.05,0.16,0.65,0.01
3.288,0.64,0.67,0.06,0.16,0.65,0.01
3.288,0.64,0.67,0.06,0.18,0.59,0.03
3.288,0.64,0.67,0.06,0.21,0.54,0.04
3.292,0.39,0.67,0.08,0.21,0.54,0.04
3.292,0.39,0.67,0.08,0.24,0.47,0.06
3.294,0.21,0.67,0.08,0.24,0.47,0.06
3.295,0.21,0.67,0.08,0.27,0.41,0.08
3.296,0.21,0.67,0.08,0.29,0.34,0.11
3.298,0.21,0.67,0.08,0.31,0.27,0.13
3.299,0.09,0.67,0.06,0.31,0.27,0.13
3.301,0.09,0.67,0.06,0.34,0.20,0.15
3.304,0.04,0.68,0.04,0.34,0.20,0.15
3.304,0.04,0.68,0.04,0.36,0.13,0.16
3.309,0.04,0.68,0.04,0.38,0.06,0.18
3.309,0.04,0.68,0.04,0.40,-0.02,0.19
3.309,0.01,0.62,0.03,0.40,-0.02,0.19
3.312,-0.02,0.63,0.00,0.40,-0.02,0.19
3.312,-0.02,0.63,0.00,0.42,-0.09,0.20
3.316,-0.01,0.58,-0.01,0.42,-0.09,0.20
3.318,-0.01,0.58,-0.01,0.44,-0.17,0.21
3.318,-0.01,0.58,-0.01,0.45,-0.24,0.22
3.323,-0.01,0.58,-0.01,0.47,-0.32,0.22
3.323,0.00,0.57,-0.06,0.47,-0.32,0.22
3.323,0.00,0.57,-0.06,0.48,-0.39,0.22
3.323,0.01,0.56,-0.09,0.48,-0.39,0.22
3.325,0.01,0.56,-0.09,0.50,-0.45,0.22
3.328,-0.05,0.52,-0.11,0.50,-0.45,0.22
3.329,-0.05,0.52,-0.11,0.51,-0.52,0.22
3.329,-0.05,0.52,-0.11,0.51,-0.59,0.22
3.332,-0.06,0.51,-0.13,0.51,-0.59,0.22
3.332,-0.06,0.51,-0.13,0.52,-0.65,0.21
3.337,-0.08,0.47,-0.15,0.52,-0.65,0.21
3.338,-0.08,0.47,-0.15,0.53,-0.71,0.21
3.338,-0.08,0.47,-0.15,0.53,-0.76,0.21
3.341,-0.08,0.47,-0.15,0.53,-0.82,0.20
3.341,-0.14,0.44,-0.18,0.53,-0.82,0.20
3.341,-0.14,0.44,-0.18,0.53,-0.86,0.20
3.344,-0.23,0.37,-0.22,0.53,-0.86,0.20
3.345,-0.23,0.37,-0.22,0.53,-0.91,0.19
3.367,-0.23,0.37,-0.22,0.53,-0.95,0.19
3.367,-0.31,0.30,-0.25,0.53,-0.95,0.19
3.367,-0.31,0.30,-0.25,0.52,-0.99,0.18
3.367,-0.39,0.24,-0.29,0.52,-0.99,0.18
3.367,-0.39,0.24,-0.29,0.52,-1.02,0.18
3.367,-0.44,0.14,-0.27,0.52,-1.02,0.18
3.367,-0.44,0.14,-0.27,0.51,-1.05,0.18
3.367,-0.44,0.14,-0.27,0.51,-1.08,0.17
3.368,-0.44,0.14,-0.27,0.50,-1.10,0.17
3.368,-0.49,0.04,-0.28,0.50,-1.10,0.17
3.368,-0.49,0.04,-0.28,0.49,-1.12,0.17
3.368,-0.54,-0.06,-0.30,0.49,-1.12,0.17
3.368,-0.54,-0.06,-0.30,0.48,-1.13,0.17
3.368,-0.56,-0.13,-0.28,0.48,-1.13,0.17
3.368,-0.56,-0.13,-0.28,0.47,-1.14,0.17
3.368,-0.56,-0.13,-0.28,0.46,-1.15,0.17
3.372,-0.57,-0.19,-0.25,0.46,-1.15,0.17
3.372,-0.57,-0.19,-0.25,0.45,-1.15,0.17
3.376,-0.56,-0.24,-0.24,0.45,-1.15,0.17
3.376,-0.56,-0.24,-0.24,0.43,-1.15,0.17
3.376,-0.56,-0.24,-0.24,0.42,-1.15,0.17
3.388,-0.56,-0.24,-0.24,0.41,-1.15,0.16
3.388,-0.49,-0.29,-0.21,0.41,-1.15,0.16
3.388,-0.49,-0.29,-0.21,0.40,-1.14,0.16
3.388,-0.48,-0.30,-0.20,0.40,-1.14,0.16
3.389,-0.48,-0.30,-0.20,0.38,-1.13,0.15
3.389,-0.42,-0.32,-0.18,0.38,-1.13,0.15
3.389,-0.42,-0.32,-0.18,0.37,-1.12,0.14
3.389,-0.42,-0.32,-0.18,0.35,-1.10,0.14
3.392,-0.35,-0.31,-0.15,0.35,-1.10,0.14
3.392,-0.35,-0.31,-0.15,0.34,-1.09,0.12
3.396,-0.26,-0.27,-0.12,0.34,-1.09,0.12
3.396,-0.26,-0.27,-0.12,0.33,-1.07,0.11
3.397,-0.26,-0.27,-0.12,0.32,-1.05,0.10
3.4,-0.26,-0.27,-0.12,0.30,-1.02,0.09
3.401,-0.22,-0.28,-0.10,0.30,-1.02,0.09
3.401,-0.22,-0.28,-0.10,0.29,-0.99,0.08
3.408,-0.16,-0.26,-0.05,0.29,-0.99,0.08
3.409,-0.16,-0.26,-0.05,0.28,-0.96,0.07
3.409,-0.15,-0.22,-0.01,0.28,-0.96,0.07
3.409,-0.15,-0.22,-0.01,0.27,-0.93,0.05
3.409,-0.15,-0.22,-0.01,0.26,-0.90,0.04
3.412,-0.15,-0.23,0.02,0.26,-0.90,0.04
3.412,-0.15,-0.23,0.02,0.25,-0.87,0.03
3.416,-0.12,-0.18,0.06,0.25,-0.87,0.03
3.416,-0.12,-0.18,0.06,0.23,-0.83,0.02
3.416,-0.12,-0.18,0.06,0.23,-0.79,0.01
3.423,-0.12,-0.18,0.06,0.22,-0.75,0.01
3.424,-0.13,-0.18,0.11,0.22,-0.75,0.01
3.424,-0.13,-0.18,0.11,0.21,-0.71,-0.00
3.424,-0.15,-0.13,0.15,0.21,-0.71,-0.00
3.424,-0.15,-0.13,0.15,0.20,-0.67,-0.01
3.428,-0.10,-0.12,0.17,0.20,-0.67,-0.01
3.428,-0.10,-0.12,0.17,0.19,-0.62,-0.02
3.428,-0.10,-0.12,0.17,0.19,-0.57,-0.03
3.432,-0.10,-0.12,0.17,0.18,-0.53,-0.03
3.432,-0.07,-0.12,0.21,0.18,-0.53,-0.03
3.435,-0.07,-0.12,0.21,0.17,-0.48,-0.04
3.436,-0.05,-0.13,0.23,0.17,-0.48,-0.04
3.436,-0.05,-0.13,0.23,0.17,-0.43,-0.05
3.44,-0.05,-0.13,0.23,0.16,-0.38,-0.06
3.441,-0.00,-0.11,0.23,0.16,-0.38,-0.06
3.441,-0.00,-0.11,0.23,0.16,-0.33,-0.06
3.444,0.05,-0.09,0.23,0.16,-0.33,-0.06
3.444,0.05,-0.09,0.23,0.15,-0.27,-0.07
3.448,0.11,-0.12,0.23,0.15,-0.27,-0.07
3.448,0.11,-0.12,0.23,0.14,-0.22,-0.08
3.449,0.11,-0.12,0.23,0.13,-0.17,-0.08
3.452,0.15,-0.05,0.19,0.13,-0.17,-0.08
3.452,0.15,-0.05,0.19,0.13,-0.12,-0.09
3.455,0.20,-0.07,0.16,0.13,-0.12,-0.09
3.456,0.20,-0.07,0.16,0.12,-0.06,-0.09
3.456,0.20,-0.07,0.16,0.11,-0.01,-0.10
3.46,0.20,-0.07,0.16,0.10,0.04,-0.10
3.46,0.21,-0.04,0.11,0.10,0.04,-0.10
3.461,0.21,-0.04,0.11,0.08,0.09,-0.11
3.464,0.24,-0.05,0.05,0.08,0.09,-0.11
3.468,0.24,-0.05,0.05,0.07,0.14,-0.11
3.47,0.25,-0.03,-0.02,0.07,0.14,-0.11
3.471,0.25,-0.03,-0.02,0.05,0.18,-0.11
3.471,0.25,-0.03,-0.02,0.04,0.23,-0.11
3.472,0.28,-0.04,-0.06,0.04,0.23,-0.11
3.472,0.28,-0.04,-0.06,0.02,0.27,-0.11
3.476,0.32,-0.04,-0.12,0.02,0.27,-0.11
3.477,0.32,-0.04,-0.12,0.01,0.32,-0.11
3.477,0.32,-0.04,-0.12,-0.01,0.36,-0.11
3.481,0.34,-0.05,-0.15,-0.01,0.36,-0.11
3.481,0.34,-0.05,-0.15,-0.03,0.40,-0.11
3.481,0.34,-0.05,-0.15,-0.05,0.44,-0.11
3.484,0.37,-0.04,-0.19,-0.05,0.44,-0.11
3.488,0.37,-0.04,-0.19,-0.06,0.47,-0.10
3.491,0.37,-0.04,-0.19,-0.08,0.51,-0.10
3.491,0.42,-0.04,-0.22,-0.08,0.51,-0.10
3.491,0.42,-0.04,-0.22,-0.10,0.54,-0.10
3.493,0.44,-0.03,-0.22,-0.10,0.54,-0.10
3.493,0.44,-0.03,-0.22,-0.11,0.57,-0.10
3.495,0.51,0.01,-0.22,-0.11,0.57,-0.10
3.495,0.51,0.01,-0.22,-0.13,0.59,-0.10
3.496,0.51,0.01,-0.22,-0.14,0.62,-0.09
3.499,0.51,0.01,-0.22,-0.16,0.64,-0.09
3.499,0.53,0.04,-0.22,-0.16,0.64,-0.09
3.526,0.53,0.04,-0.22,-0.17,0.66,-0.09
3.526,0.58,0.05,-0.18,-0.17,0.66,-0.09
3.526,0.58,0.05,-0.18,-0.18,0.68,-0.09
3.526,0.62,0.11,-0.15,-0.18,0.68,-0.09
3.526,0.62,0.11,-0.15,-0.19,0.69,-0.09
3.527,0.62,0.11,-0.15,-0.20,0.71,-0.09
3.527,0.62,0.12,-0.10,-0.20,0.71,-0.09
3.527,0.62,0.12,-0.10,-0.21,0.72,-0.08
3.527,0.63,0.15,-0.07,-0.21,0.72,-0.08
3.527,0.63,0.15,-0.07,-0.22,0.73,-0.08
3.527,0.63,0.15,-0.07,-0.22,0.73,-0.08
3.527,0.63,0.15,-0.07,-0.23,0.74,-0.08
3.527,0.65,0.22,-0.01,-0.23,0.74,-0.08
3.528,0.65,0.22,-0.01,-0.23,0.74,-0.08
3.528,0.64,0.24,0.04,-0.23,0.74,-0.08
3.528,0.64,0.24,0.04,-0.23,0.73,-0.08
3.531,0.62,0.24,0.09,-0.23,0.73,-0.08
3.531,0.62,0.24,0.09,-0.23,0.73,-0.07
3.531,0.62,0.24,0.09,-0.22,0.72,-0.07
3.532,0.60,0.25,0.15,-0.22,0.72,-0.07
3.545,0.60,0.25,0.15,-0.22,0.71,-0.07
3.546,0.53,0.23,0.19,-0.22,0.71,-0.07
3.546,0.53,0.23,0.19,-0.22,0.70,-0.06
3.546,0.53,0.23,0.19,-0.21,0.68,-0.06
3.546,0.53,0.23,0.19,-0.20,0.66,-0.05
3.546,0.53,0.23,0.19,-0.20,0.64,-0.05
3.546,0.47,0.21,0.23,-0.20,0.64,-0.05
3.547,0.44,0.18,0.25,-0.20,0.64,-0.05
3.547,0.44,0.18,0.25,-0.19,0.61,-0.04
3.551,0.44,0.18,0.25,-0.18,0.58,-0.03
3.551,0.38,0.13,0.28,-0.18,0.58,-0.03
3.551,0.38,0.13,0.28,-0.17,0.55,-0.03
3.552,0.35,0.07,0.29,-0.17,0.55,-0.03
3.552,0.35,0.07,0.29,-0.15,0.52,-0.02
3.556,0.33,0.01,0.30,-0.15,0.52,-0.02
3.556,0.33,0.01,0.30,-0.15,0.49,-0.01
3.556,0.33,0.01,0.30,-0.14,0.45,-0.01
3.56,0.33,0.01,0.30,-0.12,0.40,0.00
3.56,0.28,-0.02,0.28,-0.12,0.40,0.00
3.56,0.28,-0.02,0.28,-0.11,0.36,0.01
3.564,0.26,-0.05,0.27,-0.11,0.36,0.01
3.564,0.26,-0.05,0.27,-0.10,0.32,0.01
3.568,0.26,-0.05,0.27,-0.09,0.27,0.02
3.568,0.26,-0.05,0.27,-0.08,0.22,0.02
3.571,0.22,-0.09,0.25,-0.08,0.22,0.02
3.572,0.18,-0.11,0.21,-0.08,0.22,0.02
3.572,0.18,-0.11,0.21,-0.07,0.17,0.03
3.577,0.18,-0.11,0.21,-0.06,0.12,0.03
3.577,0.18,-0.11,0.21,-0.05,0.06,0.03
3.577,0.16,-0.11,0.18,-0.05,0.06,0.03
3.579,0.13,-0.11,0.15,-0.05,0.06,0.03
3.579,0.13,-0.11,0.15,-0.04,0.01,0.04
3.581,0.13,-0.11,0.15,-0.03,-0.05,0.04
3.583,0.10,-0.12,0.10,-0.03,-0.05,0.04
3.584,0.10,-0.12,0.10,-0.03,-0.10,0.04
3.587,0.08,-0.11,0.07,-0.03,-0.10,0.04
3.588,0.08,-0.11,0.07,-0.02,-0.16,0.04
3.588,0.08,-0.11,0.07,-0.01,-0.21,0.04
3.592,0.08,-0.11,0.07,-0.01,-0.27,0.05
3.592,0.05,-0.13,0.00,-0.01,-0.27,0.05
3.596,0.03,-0.11,-0.06,-0.01,-0.27,0.05
3.596,0.03,-0.11,-0.06,-0.01,-0.32,0.04
3.596,0.03,-0.11,-0.06,0.00,-0.37,0.04
3.6,0.00,-0.10,-0.12,0.00,-0.37,0.04
3.6,0.00,-0.10,-0.12,0.01,-0.43,0.04
3.6,0.00,-0.10,-0.12,0.01,-0.48,0.04
3.604,-0.03,-0.09,-0.16,0.01,-0.48,0.04
3.607,-0.03,-0.09,-0.16,0.01,-0.53,0.04
3.608,-0.06,-0.06,-0.21,0.01,-0.53,0.04
3.608,-0.06,-0.06,-0.21,0.01,-0.58,0.04
3.608,-0.06,-0.06,-0.21,0.01,-0.62,0.03
3.612,-0.06,-0.06,-0.21,0.01,-0.67,0.03
3.612,-0.09,-0.04,-0.26,0.01,-0.67,0.03
3.616,-0.09,-0.04,-0.26,0.01,-0.71,0.03
3.617,-0.13,0.01,-0.31,0.01,-0.71,0.03
3.617,-0.13,0.01,-0.31,0.01,-0.74,0.03
3.619,-0.19,0.03,-0.35,0.01,-0.74,0.03
3.62,-0.19,0.03,-0.35,0.01,-0.78,0.03
3.621,-0.19,0.03,-0.35,0.00,-0.82,0.03
3.625,-0.23,0.05,-0.39,0.00,-0.82,0.03
3.625,-0.23,0.05,-0.39,0.00,-0.85,0.03
3.628,-0.23,0.05,-0.39,0.00,-0.88,0.03
3.629,-0.27,0.07,-0.40,0.00,-0.88,0.03
3.629,-0.27,0.07,-0.40,-0.00,-0.90,0.03
3.632,-0.30,0.05,-0.44,-0.00,-0.90,0.03
3.632,-0.30,0.05,-0.44,-0.01,-0.93,0.04
3.639,-0.30,0.05,-0.44,-0.01,-0.95,0.04
3.639,-0.31,0.06,-0.48,-0.01,-0.95,0.04
3.64,-0.31,0.06,-0.48,-0.01,-0.96,0.04
3.642,-0.30,0.04,-0.49,-0.01,-0.96,0.04
3.642,-0.30,0.04,-0.49,-0.02,-0.98,0.04
3.642,-0.30,0.04,-0.49,-0.02,-0.99,0.04
3.645,-0.31,0.06,-0.50,-0.02,-0.99,0.04
3.645,-0.31,0.06,-0.50,-0.03,-0.99,0.05
3.65,-0.31,0.06,-0.50,-0.03,-1.00,0.05
3.65,-0.32,0.06,-0.51,-0.03,-1.00,0.05
3.65,-0.32,0.06,-0.51,-0.04,-1.00,0.05
3.657,-0.31,0.04,-0.53,-0.04,-1.00,0.05
3.658,-0.31,0.04,-0.53,-0.04,-0.99,0.05
3.658,-0.31,0.04,-0.53,-0.04,-0.98,0.05
3.658,-0.31,0.04,-0.53,-0.05,-0.97,0.05
3.658,-0.29,0.07,-0.52,-0.05,-0.97,0.05
3.684,-0.29,0.07,-0.52,-0.05,-0.96,0.05
3.684,-0.28,0.06,-0.52,-0.05,-0.96,0.05
3.684,-0.28,0.05,-0.51,-0.05,-0.96,0.05
3.685,-0.28,0.05,-0.51,-0.06,-0.94,0.05
3.685,-0.28,0.05,-0.51,-0.06,-0.93,0.05
3.685,-0.29,0.03,-0.50,-0.06,-0.93,0.05
3.685,-0.29,0.03,-0.50,-0.06,-0.90,0.05
3.685,-0.29,0.03,-0.50,-0.07,-0.88,0.05
3.685,-0.29,0.03,-0.50,-0.07,-0.86,0.05
3.685,-0.28,0.01,-0.47,-0.07,-0.86,0.05
3.685,-0.25,0.03,-0.46,-0.07,-0.86,0.05
3.686,-0.25,0.03,-0.46,-0.07,-0.83,0.05
3.686,-0.25,0.03,-0.46,-0.07,-0.80,0.05
3.686,-0.22,0.03,-0.42,-0.07,-0.80,0.05
3.686,-0.22,0.03,-0.42,-0.07,-0.77,0.05
3.686,-0.22,0.03,-0.42,-0.07,-0.74,0.04
3.686,-0.21,-0.01,-0.39,-0.07,-0.74,0.04
3.686,-0.21,-0.01,-0.39,-0.08,-0.70,0.04
3.696,-0.19,-0.00,-0.36,-0.08,-0.70,0.04
3.696,-0.19,-0.00,-0.36,-0.07,-0.66,0.04
3.696,-0.19,-0.00,-0.36,-0.07,-0.63,0.04
3.697,-0.17,-0.00,-0.32,-0.07,-0.63,0.04
3.697,-0.17,-0.00,-0.32,-0.07,-0.59,0.03
3.697,-0.17,-0.00,-0.32,-0.06,-0.55,0.03
3.697,-0.18,0.01,-0.29,-0.06,-0.55,0.03
3.697,-0.18,0.01,-0.29,-0.06,-0.51,0.02
3.699,-0.12,0.02,-0.27,-0.06,-0.51,0.02
3.699,-0.12,0.02,-0.27,-0.05,-0.47,0.02
3.701,-0.12,0.02,-0.27,-0.05,-0.43,0.01
3.705,-0.11,0.00,-0.21,-0.05,-0.43,0.01
3.705,-0.11,0.00,-0.21,-0.05,-0.38,0.01
3.709,-0.09,-0.06,-0.21,-0.05,-0.38,0.01
3.709,-0.09,-0.06,-0.21,-0.04,-0.34,0.01
3.709,-0.09,-0.06,-0.21,-0.03,-0.30,0.00
3.712,-0.11,-0.10,-0.17,-0.03,-0.30,0.00
3.712,-0.11,-0.10,-0.17,-0.03,-0.25,-0.00
3.716,-0.10,-0.14,-0.15,-0.03,-0.25,-0.00
3.716,-0.10,-0.14,-0.15,-0.02,-0.21,-0.01
3.716,-0.10,-0.14,-0.15,-0.01,-0.16,-0.01
3.72,-0.08,-0.16,-0.15,-0.01,-0.16,-0.01
3.72,-0.08,-0.16,-0.15,-0.01,-0.12,-0.01
3.72,-0.08,-0.16,-0.15,0.00,-0.07,-0.02
3.724,-0.08,-0.20,-0.13,0.00,-0.07,-0.02
3.727,-0.08,-0.20,-0.13,0.01,-0.03,-0.02
3.727,-0.06,-0.20,-0.13,0.01,-0.03,-0.02
3.728,-0.06,-0.20,-0.13,0.01,0.02,-0.03
3.729,-0.06,-0.20,-0.13,0.02,0.06,-0.03
3.732,-0.05,-0.22,-0.14,0.02,0.06,-0.03
3.732,-0.05,-0.22,-0.14,0.03,0.10,-0.03
3.737,-0.04,-0.16,-0.15,0.03,0.10,-0.03
3.737,-0.04,-0.16,-0.15,0.03,0.14,-0.03
3.738,-0.04,-0.16,-0.15,0.04,0.18,-0.03
3.74,0.00,-0.12,-0.16,0.04,0.18,-0.03
3.74,0.00,-0.12,-0.16,0.04,0.22,-0.04
3.741,0.00,-0.12,-0.16,0.04,0.25,-0.04
3.744,-0.01,-0.10,-0.18,0.04,0.25,-0.04
3.744,-0.01,-0.10,-0.18,0.05,0.29,-0.04
3.749,0.01,-0.02,-0.18,0.05,0.29,-0.04
3.749,0.01,-0.02,-0.18,0.05,0.32,-0.04
3.749,0.01,-0.02,-0.18,0.05,0.35,-0.04
3.752,0.01,-0.02,-0.18,0.05,0.38,-0.04
3.752,-0.01,0.02,-0.21,0.05,0.38,-0.04
3.756,0.03,0.03,-0.23,0.05,0.38,-0.04
3.757,0.03,0.03,-0.23,0.05,0.41,-0.04
3.757,0.03,0.03,-0.23,0.06,0.43,-0.04
3.76,0.00,0.06,-0.24,0.06,0.43,-0.04
3.76,0.00,0.06,-0.24,0.05,0.45,-0.04
3.76,0.00,0.06,-0.24,0.05,0.47,-0.04
3.764,0.04,0.12,-0.25,0.05,0.47,-0.04
3.764,0.04,0.12,-0.25,0.05,0.49,-0.04
3.769,0.04,0.12,-0.25,0.05,0.51,-0.04
3.769,0.06,0.13,-0.25,0.05,0.51,-0.04
3.769,0.06,0.13,-0.25,0.05,0.52,-0.04
3.776,0.06,0.12,-0.24,0.05,0.52,-0.04
3.776,0.06,0.12,-0.24,0.05,0.53,-0.04
3.776,0.08,0.13,-0.25,0.05,0.53,-0.04
3.777,0.08,0.13,-0.25,0.05,0.54,-0.04
3.777,0.08,0.13,-0.25,0.04,0.55,-0.04
3.781,0.07,0.12,-0.19,0.04,0.55,-0.04
3.781,0.07,0.12,-0.19,0.04,0.55,-0.03
3.781,0.07,0.12,-0.19,0.04,0.56,-0.04
3.784,0.09,0.10,-0.18,0.04,0.56,-0.04
3.786,0.09,0.10,-0.18,0.04,0.56,-0.04
3.805,0.09,0.07,-0.14,0.04,0.56,-0.04
3.806,0.09,0.07,-0.14,0.04,0.56,-0.03
3.806,0.09,0.07,-0.14,0.04,0.56,-0.03
3.806,0.10,0.06,-0.11,0.04,0.56,-0.03
3.807,0.10,0.06,-0.11,0.04,0.55,-0.03
3.807,0.08,0.02,-0.08,0.04,0.55,-0.03
3.807,0.08,0.02,-0.08,0.04,0.55,-0.03
3.807,0.08,0.02,-0.08,0.04,0.54,-0.03
3.808,0.10,0.03,-0.04,0.04,0.54,-0.03
3.808,0.10,0.03,-0.04,0.05,0.53,-0.03
3.808,0.10,0.03,-0.04,0.05,0.52,-0.03
3.808,0.09,0.02,0.00,0.05,0.52,-0.03
3.809,0.09,0.02,0.00,0.05,0.50,-0.03
3.809,0.08,0.02,0.03,0.05,0.50,-0.03
3.809,0.08,0.02,0.03,0.05,0.49,-0.03
3.809,0.08,0.02,0.03,0.05,0.48,-0.03
3.833,0.07,-0.03,0.07,0.05,0.48,-0.03
3.834,0.07,-0.03,0.07,0.06,0.46,-0.03
3.834,0.07,-0.03,0.07,0.06,0.45,-0.03
3.834,0.05,-0.03,0.10,0.06,0.45,-0.03
3.834,0.05,-0.03,0.10,0.06,0.43,-0.02
3.834,0.05,-0.03,0.10,0.07,0.41,-0.02
3.834,0.05,-0.03,0.10,0.07,0.40,-0.02
3.834,0.05,-0.04,0.13,0.07,0.40,-0.02
3.834,0.04,-0.07,0.17,0.07,0.40,-0.02
3.835,0.04,-0.07,0.17,0.08,0.38,-0.02
3.835,0.08,-0.13,0.17,0.08,0.38,-0.02
3.835,0.08,-0.13,0.17,0.08,0.36,-0.02
3.835,0.08,-0.13,0.17,0.08,0.34,-0.01
3.835,0.03,-0.09,0.18,0.08,0.34,-0.01
3.835,0.03,-0.09,0.18,0.09,0.33,-0.01
3.839,0.06,-0.10,0.20,0.09,0.33,-0.01
3.839,0.06,-0.10,0.20,0.09,0.31,-0.01
3.84,0.06,-0.10,0.20,0.09,0.29,-0.01
3.84,0.08,-0.07,0.19,0.09,0.29,-0.01
3.851,0.08,-0.07,0.19,0.10,0.27,-0.01
3.851,0.08,-0.07,0.19,0.10,0.26,-0.01
3.851,0.09,-0.05,0.22,0.10,0.26,-0.01
3.851,0.09,-0.05,0.22,0.10,0.24,-0.01
3.852,0.09,0.00,0.21,0.10,0.24,-0.01
3.852,0.09,0.00,0.21,0.11,0.22,-0.01
3.852,0.09,0.00,0.21,0.11,0.21,-0.01
3.852,0.09,0.05,0.19,0.11,0.21,-0.01
3.852,0.09,0.05,0.19,0.11,0.19,-0.01
3.856,0.09,0.05,0.19,0.11,0.18,-0.01
3.857,0.07,0.06,0.20,0.11,0.18,-0.01
3.857,0.07,0.06,0.20,0.11,0.16,-0.01
3.86,0.05,0.09,0.18,0.11,0.16,-0.01
3.86,0.05,0.09,0.18,0.11,0.15,-0.01
3.861,0.05,0.09,0.18,0.10,0.13,-0.01
3.864,0.04,0.11,0.19,0.10,0.13,-0.01
3.869,0.04,0.11,0.19,0.11,0.12,-0.00
3.87,0.01,0.14,0.17,0.11,0.12,-0.00
3.87,0.01,0.14,0.17,0.11,0.11,-0.00
3.87,0.01,0.14,0.17,0.10,0.09,-0.00
3.871,-0.02,0.18,0.20,0.10,0.09,-0.00
3.872,-0.02,0.18,0.20,0.10,0.08,0.00
3.876,-0.01,0.17,0.17,0.10,0.08,0.00
3.876,-0.01,0.17,0.17,0.10,0.07,0.00
3.877,-0.01,0.17,0.17,0.10,0.06,0.00
3.88,-0.04,0.17,0.19,0.10,0.06,0.00
3.88,-0.04,0.17,0.19,0.10,0.05,0.01
3.881,-0.04,0.17,0.19,0.10,0.04,0.01
3.884,-0.06,0.16,0.22,0.10,0.04,0.01
3.884,-0.06,0.16,0.22,0.10,0.03,0.01
3.887,-0.04,0.12,0.19,0.10,0.03,0.01
3.888,-0.04,0.12,0.19,0.09,0.02,0.01
3.888,-0.04,0.12,0.19,0.09,0.01,0.01
3.892,-0.07,0.10,0.20,0.09,0.01,0.01
3.892,-0.07,0.10,0.20,0.09,0.00,0.02
3.895,-0.07,0.10,0.20,0.09,-0.01,0.02
3.895,-0.10,0.11,0.21,0.09,-0.01,0.02
3.896,-0.10,0.11,0.21,0.09,-0.02,0.02
3.899,-0.11,0.06,0.23,0.09,-0.02,0.02
3.899,-0.11,0.06,0.23,0.08,-0.02,0.02
3.901,-0.11,0.06,0.23,0.08,-0.03,0.03
3.907,-0.12,0.04,0.23,0.08,-0.03,0.03
3.907,-0.12,0.04,0.23,0.08,-0.04,0.03
3.908,-0.12,0.04,0.23,0.08,-0.04,0.03
3.908,-0.15,0.00,0.22,0.08,-0.04,0.03
3.908,-0.15,0.00,0.22,0.07,-0.05,0.03
3.912,-0.15,0.00,0.22,0.07,-0.05,0.03
3.912,-0.15,0.00,0.22,0.07,-0.05,0.03
3.916,-0.13,-0.02,0.24,0.07,-0.05,0.03
3.916,-0.13,-0.02,0.24,0.07,-0.06,0.03
3.916,-0.13,-0.02,0.24,0.07,-0.06,0.03
3.919,-0.13,-0.02,0.24,0.07,-0.07,0.03
3.919,-0.13,-0.03,0.25,0.07,-0.07,0.03
3.922,-0.13,-0.03,0.25,0.06,-0.07,0.03
3.923,-0.15,-0.03,0.24,0.06,-0.07,0.03
3.924,-0.15,-0.03,0.24,0.06,-0.07,0.03
3.929,-0.18,-0.04,0.24,0.06,-0.07,0.03
3.929,-0.18,-0.04,0.24,0.06,-0.07,0.03
3.929,-0.18,-0.04,0.24,0.06,-0.08,0.03
3.933,-0.19,-0.04,0.24,0.06,-0.08,0.03
3.933,-0.19,-0.04,0.24,0.06,-0.08,0.03
3.937,-0.19,-0.04,0.24,0.05,-0.08,0.03
3.937,-0.20,-0.02,0.25,0.05,-0.08,0.03
3.937,-0.20,-0.02,0.25,0.05,-0.08,0.03
3.942,-0.20,-0.02,0.25,0.04,-0.08,0.03
3.942,-0.20,-0.04,0.23,0.04,-0.08,0.03
3.942,-0.20,-0.04,0.23,0.04,-0.08,0.03
3.946,-0.21,0.01,0.22,0.04,-0.08,0.03
3.946,-0.21,0.01,0.22,0.04,-0.08,0.03
3.948,-0.21,0.01,0.22,0.03,-0.08,0.03
3.949,-0.20,0.01,0.22,0.03,-0.08,0.03
3.949,-0.20,0.01,0.22,0.03,-0.08,0.02
3.953,-0.18,0.01,0.21,0.03,-0.08,0.02
3.953,-0.18,0.01,0.21,0.03,-0.08,0.02
3.957,-0.18,0.00,0.21,0.03,-0.08,0.02
3.958,-0.18,0.00,0.21,0.03,-0.08,0.02
3.958,-0.18,0.00,0.21,0.02,-0.08,0.02
3.961,-0.21,0.00,0.19,0.02,-0.08,0.02
3.962,-0.21,0.00,0.19,0.02,-0.07,0.01
3.962,-0.21,0.00,0.19,0.02,-0.07,0.01
3.986,-0.20,0.00,0.21,0.02,-0.07,0.01
3.986,-0.20,0.00,0.21,0.01,-0.07,0.01
3.986,-0.20,-0.01,0.20,0.01,-0.07,0.01
3.987,-0.20,-0.01,0.20,0.01,-0.07,0.01
3.987,-0.20,-0.01,0.20,0.01,-0.07,0.01
3.987,-0.21,-0.01,0.18,0.01,-0.07,0.01
3.987,-0.21,-0.01,0.18,0.01,-0.06,0.01
3.987,-0.22,-0.00,0.19,0.01,-0.06,0.01
3.987,-0.22,-0.00,0.19,0.00,-0.06,0.01
3.987,-0.22,-0.00,0.19,0.00,-0.06,0.01
3.988,-0.22,-0.00,0.19,-0.00,-0.06,0.01
3.988,-0.23,-0.04,0.18,-0.00,-0.06,0.01
3.988,-0.23,-0.04,0.18,-0.01,-0.06,0.01
3.988,-0.23,-0.05,0.16,-0.01,-0.06,0.01
3.988,-0.23,-0.05,0.16,-0.01,-0.06,0.01
3.988,-0.23,-0.05,0.16,-0.01,-0.06,0.01
3.988,-0.23,-0.05,0.15,-0.01,-0.06,0.01
3.988,-0.23,-0.05,0.15,-0.01,-0.06,0.01
3.993,-0.24,-0.08,0.14,-0.01,-0.06,0.01
3.993,-0.24,-0.08,0.14,-0.02,-0.06,0.01
4.009,-0.24,-0.08,0.14,-0.02,-0.06,0.01
4.009,-0.24,-0.08,0.14,-0.02,-0.06,0.01
4.009,-0.23,-0.05,0.13,-0.02,-0.06,0.01
4.009,-0.23,-0.05,0.12,-0.02,-0.06,0.01
4.009,-0.23,-0.05,0.12,-0.03,-0.06,0.01
4.01,-0.23,-0.05,0.12,-0.03,-0.06,0.01
4.01,-0.18,-0.05,0.10,-0.03,-0.06,0.01
4.01,-0.18,-0.05,0.10,-0.04,-0.06,0.01
4.01,-0.18,-0.05,0.10,-0.04,-0.06,0.01
4.01,-0.20,-0.03,0.07,-0.04,-0.06,0.01
4.01,-0.20,-0.03,0.07,-0.04,-0.06,0.01
4.013,-0.20,0.01,0.07,-0.04,-0.06,0.01
4.013,-0.20,0.01,0.07,-0.04,-0.06,0.00
4.017,-0.18,0.03,0.05,-0.04,-0.06,0.00
4.017,-0.18,0.03,0.05,-0.05,-0.06,0.00
4.017,-0.18,0.03,0.05,-0.05,-0.06,0.00
4.02,-0.18,0.03,0.05,-0.06,-0.06,0.00
4.02,-0.17,0.07,0.06,-0.06,-0.06,0.00
4.02,-0.17,0.07,0.06,-0.06,-0.06,-0.00
4.023,-0.15,0.08,0.06,-0.06,-0.06,-0.00
4.024,-0.15,0.08,0.06,-0.06,-0.06,-0.00
4.028,-0.12,0.09,0.06,-0.06,-0.06,-0.00
4.028,-0.12,0.09,0.06,-0.06,-0.06,-0.00
4.028,-0.12,0.09,0.06,-0.06,-0.05,-0.00
4.031,-0.12,0.09,0.06,-0.06,-0.05,-0.01
4.031,-0.11,0.09,0.07,-0.06,-0.05,-0.01
4.036,-0.11,0.09,0.07,-0.06,-0.05,-0.01
4.036,-0.10,0.08,0.10,-0.06,-0.05,-0.01
4.036,-0.10,0.08,0.10,-0.06,-0.04,-0.01
4.039,-0.06,0.04,0.09,-0.06,-0.04,-0.01
4.04,-0.06,0.04,0.09,-0.06,-0.04,-0.01
4.042,-0.06,0.04,0.09,-0.05,-0.04,-0.01
4.044,-0.04,0.01,0.10,-0.05,-0.04,-0.01
4.044,-0.04,0.01,0.10,-0.06,-0.03,-0.01
4.048,-0.04,-0.00,0.12,-0.06,-0.03,-0.01
4.048,-0.04,-0.00,0.12,-0.06,-0.03,-0.01
4.048,-0.04,-0.00,0.12,-0.06,-0.02,-0.01
4.052,-0.04,-0.04,0.12,-0.06,-0.02,-0.01
4.052,-0.04,-0.04,0.12,-0.05,-0.02,-0.01
4.056,-0.04,-0.04,0.12,-0.05,-0.01,-0.01
4.056,-0.04,-0.04,0.12,-0.05,-0.01,-0.01
4.056,-0.02,-0.05,0.12,-0.05,-0.01,-0.01
4.06,0.00,-0.05,0.12,-0.05,-0.01,-0.01
4.06,0.00,-0.05,0.12,-0.05,-0.00,-0.01
4.061,0.00,-0.05,0.12,-0.04,0.00,-0.01
4.064,0.03,-0.01,0.10,-0.04,0.00,-0.01
4.064,0.03,-0.01,0.10,-0.04,0.01,-0.01
4.068,0.04,-0.02,0.13,-0.04,0.01,-0.01
4.068,0.04,-0.02,0.13,-0.04,0.01,-0.01
4.069,0.04,-0.02,0.13,-0.04,0.01,-0.01
4.073,0.06,0.00,0.08,-0.04,0.01,-0.01
4.073,0.06,0.00,0.08,-0.04,0.02,-0.01
4.077,0.06,0.00,0.08,-0.04,0.02,-0.01
4.077,0.06,-0.00,0.06,-0.04,0.02,-0.01
4.077,0.06,-0.00,0.06,-0.04,0.03,-0.01
4.08,0.05,0.02,0.06,-0.04,0.03,-0.01
4.08,0.05,0.02,0.06,-0.03,0.03,-0.01
4.081,0.05,0.02,0.06,-0.03,0.03,-0.01
4.085,0.07,0.03,0.04,-0.03,0.03,-0.01
4.085,0.07,0.03,0.04,-0.03,0.03,-0.01
4.089,0.07,0.03,0.04,-0.03,0.04,-0.01
4.09,0.04,0.02,0.03,-0.03,0.04,-0.01
4.09,0.04,0.02,0.03,-0.03,0.04,-0.00
4.093,0.08,0.04,0.03,-0.03,0.04,-0.00
4.093,0.08,0.04,0.03,-0.03,0.04,-0.00
4.095,0.08,0.03,0.01,-0.03,0.04,-0.00
4.095,0.08,0.03,0.01,-0.03,0.04,0.00
4.096,0.08,0.03,0.01,-0.03,0.04,0.00
4.099,0.09,0.03,0.01,-0.03,0.04,0.00
4.099,0.09,0.03,0.01,-0.03,0.04,0.00
4.102,0.09,0.03,0.01,-0.02,0.04,0.00
4.102,0.08,0.00,-0.01,-0.02,0.04,0.00
4.104,0.08,0.00,-0.01,-0.02,0.04,0.01
4.106,0.08,-0.02,0.01,-0.02,0.04,0.01
4.107,0.08,-0.02,0.01,-0.02,0.04,0.01
4.108,0.08,-0.02,0.01,-0.02,0.04,0.01
4.112,0.10,-0.00,0.01,-0.02,0.04,0.01
4.113,0.10,-0.00,0.01,-0.02,0.04,0.00
4.116,0.07,0.01,0.03,-0.02,0.04,0.00
4.117,0.07,0.01,0.03,-0.02,0.04,0.01
4.117,0.07,0.01,0.03,-0.02,0.03,0.01
4.145,0.08,0.02,0.01,-0.02,0.03,0.01
4.145,0.08,0.02,0.01,-0.02,0.03,0.01
4.145,0.08,0.02,0.01,-0.02,0.03,0.01
4.145,0.08,0.01,0.00,-0.02,0.03,0.01
4.146,0.08,0.01,0.00,-0.02,0.02,0.01
4.146,0.05,-0.01,0.02,-0.02,0.02,0.01
4.146,0.05,-0.01,0.02,-0.01,0.02,0.01
4.146,0.05,-0.01,0.02,-0.01,0.01,0.01
4.146,0.07,-0.02,0.02,-0.01,0.01,0.01
4.146,0.07,-0.02,0.02,-0.01,0.01,0.01
4.146,0.07,-0.02,0.02,-0.01,0.00,0.01
4.146,0.07,-0.02,0.02,-0.01,0.00,0.01
4.147,0.07,-0.06,0.00,-0.01,0.00,0.01
4.147,0.07,-0.06,0.00,-0.01,-0.00,0.01
4.147,0.08,-0.05,0.01,-0.01,-0.00,0.01
4.147,0.08,-0.05,0.01,-0.01,-0.01,0.01
4.147,0.05,-0.05,-0.00,-0.01,-0.01,0.01
4.147,0.05,-0.05,-0.00,-0.01,-0.01,0.01
4.15,0.07,-0.04,-0.01,-0.01,-0.01,0.01
4.168,0.07,-0.04,-0.01,-0.01,-0.02,0.01
4.168,0.07,-0.04,-0.01,-0.01,-0.02,0.01
4.168,0.07,-0.04,0.00,-0.01,-0.02,0.01
4.169,0.07,-0.04,0.00,-0.01,-0.02,0.01
4.169,0.07,-0.04,0.00,-0.01,-0.03,0.01
4.169,0.05,-0.03,-0.02,-0.01,-0.03,0.01
4.169,0.05,-0.03,-0.02,-0.01,-0.03,0.01
4.169,0.05,-0.01,0.00,-0.01,-0.03,0.01
4.169,0.05,-0.01,0.00,-0.01,-0.03,0.01
4.17,0.05,-0.01,0.00,-0.01,-0.03,0.01
4.17,0.05,0.00,-0.01,-0.01,-0.03,0.01
4.17,0.05,0.00,-0.01,-0.01,-0.03,0.01
4.17,0.04,0.01,-0.01,-0.01,-0.03,0.01
4.17,0.04,0.01,-0.01,-0.00,-0.03,0.01
4.17,0.04,0.01,-0.01,-0.00,-0.03,0.01
4.174,0.00,0.02,-0.00,-0.00,-0.03,0.01
4.174,0.00,0.02,-0.00,-0.00,-0.03,0.01
4.177,0.00,0.02,-0.00,-0.00,-0.03,0.01
4.177,0.01,0.04,0.00,-0.00,-0.03,0.01
4.177,0.01,0.04,0.00,-0.00,-0.03,0.01
4.18,0.02,0.03,0.02,-0.00,-0.03,0.01
4.18,0.02,0.03,0.02,0.00,-0.02,0.01
4.181,0.02,0.03,0.02,0.00,-0.02,0.01
4.184,0.02,0.04,0.04,0.00,-0.02,0.01
4.184,0.02,0.04,0.04,0.00,-0.02,0.01
4.191,0.02,0.04,0.04,0.01,-0.02,0.01
4.191,0.02,0.04,0.04,0.01,-0.01,0.02
4.191,-0.00,0.02,0.06,0.01,-0.01,0.02
4.192,-0.00,0.02,0.06,0.01,-0.01,0.01
4.192,0.01,0.00,0.06,0.01,-0.01,0.01
4.195,-0.00,-0.02,0.07,0.01,-0.01,0.01
4.195,-0.00,-0.02,0.07,0.01,-0.00,0.01
4.195,-0.00,-0.02,0.07,0.01,-0.00,0.01
4.2,-0.00,-0.02,0.07,0.02,0.00,0.02
4.2,-0.02,-0.03,0.07,0.02,0.00,0.02
4.2,-0.02,-0.03,0.07,0.02,0.00,0.02
4.204,-0.01,-0.07,0.06,0.02,0.00,0.02
4.204,-0.01,-0.07,0.06,0.02,0.01,0.02
4.207,-0.01,-0.07,0.06,0.02,0.01,0.02
4.208,-0.01,-0.07,0.06,0.02,0.02,0.02
4.21,-0.03,-0.04,0.06,0.02,0.02,0.02
4.212,-0.03,-0.06,0.06,0.02,0.02,0.02
4.212,-0.03,-0.06,0.06,0.02,0.02,0.01
4.216,-0.03,-0.06,0.06,0.02,0.02,0.01
4.216,0.00,-0.02,0.03,0.02,0.02,0.01
4.217,0.00,-0.02,0.03,0.02,0.02,0.01
4.22,-0.04,-0.05,0.04,0.02,0.02,0.01
4.22,-0.04,-0.05,0.04,0.02,0.03,0.02
4.221,-0.04,-0.05,0.04,0.02,0.03,0.02
4.226,-0.04,-0.03,0.04,0.02,0.03,0.02
4.227,-0.04,-0.03,0.04,0.02,0.03,0.02
4.228,-0.03,-0.02,-0.00,0.02,0.03,0.02
4.228,-0.03,-0.02,-0.00,0.02,0.03,0.02
4.228,-0.03,-0.02,-0.00,0.02,0.03,0.02
4.232,-0.06,0.01,0.00,0.02,0.03,0.02
4.232,-0.06,0.01,0.00,0.01,0.03,0.02
4.236,-0.06,0.01,-0.00,0.01,0.03,0.02
4.237,-0.06,0.01,-0.00,0.01,0.03,0.02
4.237,-0.06,0.01,-0.00,0.01,0.04,0.02
4.24,-0.08,0.06,0.01,0.01,0.04,0.02
4.24,-0.08,0.06,0.01,0.01,0.04,0.02
4.24,-0.08,0.06,0.01,0.01,0.04,0.02
4.244,-0.07,0.05,-0.00,0.01,0.04,0.02
4.245,-0.07,0.05,-0.00,0.00,0.04,0.02
4.248,-0.09,0.06,0.01,0.00,0.04,0.02
4.248,-0.09,0.06,0.01,0.00,0.04,0.02
4.248,-0.09,0.06,0.01,0.00,0.04,0.02
4.252,-0.08,0.06,-0.00,0.00,0.04,0.02
4.252,-0.08,0.06,-0.00,0.00,0.04,0.02
4.261,-0.08,0.06,-0.00,-0.00,0.03,0.02
4.262,-0.12,0.05,0.01,-0.00,0.03,0.02
4.262,-0.12,0.05,0.01,-0.01,0.03,0.02
4.262,-0.11,0.04,0.04,-0.01,0.03,0.02
4.263,-0.11,0.04,0.04,-0.01,0.03,0.02
4.263,-0.11,0.04,0.04,-0.01,0.03,0.02
4.265,-0.12,0.01,0.03,-0.01,0.03,0.02
4.266,-0.12,0.01,0.03,-0.01,0.03,0.02
4.269,-0.14,0.03,0.05,-0.01,0.03,0.02
4.269,-0.14,0.03,0.05,-0.01,0.03,0.02
4.269,-0.14,0.03,0.05,-0.01,0.02,0.02
4.293,-0.14,0.03,0.05,-0.01,0.02,0.02
4.293,-0.15,0.05,0.08,-0.01,0.02,0.02
4.294,-0.15,0.05,0.08,-0.00,0.01,0.02
4.294,-0.15,-0.02,0.07,-0.00,0.01,0.02
4.294,-0.15,-0.02,0.07,-0.00,0.01,0.02
4.294,-0.18,-0.04,0.11,-0.00,0.01,0.02
4.295,-0.18,-0.04,0.11,-0.00,0.00,0.02
4.295,-0.18,-0.04,0.11,-0.00,-0.00,0.01
4.295,-0.19,-0.09,0.12,-0.00,-0.00,0.01
4.295,-0.19,-0.09,0.12,0.00,-0.01,0.01
4.295,-0.20,-0.10,0.12,0.00,-0.01,0.01
4.296,-0.20,-0.10,0.12,0.00,-0.01,0.01
4.296,-0.20,-0.10,0.12,0.00,-0.02,0.01
4.296,-0.19,-0.14,0.13,0.00,-0.02,0.01
4.296,-0.19,-0.14,0.13,0.00,-0.02,0.01
4.296,-0.19,-0.14,0.13,0.01,-0.03,0.01
4.297,-0.20,-0.12,0.13,0.01,-0.03,0.01
4.297,-0.20,-0.12,0.13,0.01,-0.03,0.01
4.299,-0.17,-0.13,0.13,0.01,-0.03,0.01
4.3,-0.17,-0.13,0.13,0.01,-0.04,0.01
4.316,-0.17,-0.13,0.13,0.01,-0.04,0.01
4.316,-0.18,-0.09,0.12,0.01,-0.04,0.01
4.316,-0.18,-0.09,0.12,0.01,-0.04,0.01
4.316,-0.16,-0.05,0.08,0.01,-0.04,0.01
4.317,-0.16,-0.05,0.08,0.01,-0.05,0.01
4.317,-0.16,-0.05,0.08,0.01,-0.05,0.01
4.317,-0.13,-0.01,0.06,0.01,-0.05,0.01
4.317,-0.13,-0.01,0.06,0.01,-0.05,0.00
4.317,-0.13,0.03,0.06,0.01,-0.05,0.00
4.317,-0.13,0.03,0.06,0.01,-0.05,0.00
4.318,-0.13,0.03,0.06,0.00,-0.05,0.00
4.321,-0.12,0.06,0.02,0.00,-0.05,0.00
4.322,-0.12,0.06,0.02,0.00,-0.05,0.00
4.322,-0.12,0.06,0.02,0.00,-0.05,0.00
4.326,-0.11,0.08,-0.00,0.00,-0.05,0.00
4.327,-0.11,0.08,-0.00,-0.00,-0.05,-0.00
4.328,-0.12,0.11,-0.00,-0.00,-0.05,-0.00
4.329,-0.12,0.11,-0.00,-0.00,-0.04,-0.00
4.329,-0.12,0.11,-0.00,-0.01,-0.04,-0.00
4.332,-0.10,0.09,-0.02,-0.01,-0.04,-0.00
4.332,-0.10,0.09,-0.02,-0.01,-0.04,-0.00
4.336,-0.07,0.08,-0.01,-0.01,-0.04,-0.00
4.336,-0.07,0.08,-0.01,-0.02,-0.03,-0.00
4.337,-0.07,0.08,-0.01,-0.02,-0.03,-0.00
4.34,-0.07,0.08,-0.01,-0.02,-0.02,-0.01
4.34,-0.08,0.06,-0.04,-0.02,-0.02,-0.01
4.34,-0.08,0.06,-0.04,-0.02,-0.02,-0.01
4.344,-0.05,0.04,-0.04,-0.02,-0.02,-0.01
4.344,-0.05,0.04,-0.04,-0.03,-0.01,-0.01
4.349,-0.02,0.02,0.01,-0.03,-0.01,-0.01
4.349,-0.02,0.02,0.01,-0.03,-0.01,-0.01
4.349,-0.02,0.02,0.01,-0.03,-0.00,-0.01
4.352,-0.01,-0.02,0.01,-0.03,-0.00,-0.01
4.352,-0.01,-0.02,0.01,-0.04,0.01,-0.01
4.356,-0.01,-0.02,0.01,-0.04,0.01,-0.01
4.356,0.01,-0.04,0.02,-0.04,0.01,-0.01
4.358,0.01,-0.04,0.02,-0.04,0.02,-0.01
4.361,0.03,-0.07,0.03,-0.04,0.02,-0.01
4.361,0.03,-0.07,0.03,-0.04,0.03,-0.01
4.361,0.03,-0.07,0.03,-0.04,0.03,-0.01
4.365,0.04,-0.06,0.05,-0.04,0.03,-0.01
4.365,0.04,-0.06,0.05,-0.04,0.04,-0.01
4.368,0.05,-0.09,0.06,-0.04,0.04,-0.01
4.369,0.05,-0.09,0.06,-0.04,0.05,-0.01
4.369,0.05,-0.09,0.06,-0.04,0.06,-0.01
4.372,0.05,-0.09,0.06,-0.04,0.07,-0.01
4.372,0.09,-0.06,0.09,-0.04,0.07,-0.01
4.376,0.07,-0.06,0.09,-0.04,0.07,-0.01
4.377,0.07,-0.06,0.09,-0.04,0.08,-0.01
4.377,0.07,-0.06,0.09,-0.04,0.08,-0.01
4.38,0.10,0.00,0.11,-0.04,0.08,-0.01
4.381,0.10,0.00,0.11,-0.04,0.09,-0.01
4.381,0.10,0.00,0.11,-0.03,0.10,-0.01
4.385,0.10,0.02,0.13,-0.03,0.10,-0.01
4.385,0.10,0.02,0.13,-0.03,0.10,-0.01
4.389,0.13,0.05,0.11,-0.03,0.10,-0.01
4.389,0.13,0.05,0.11,-0.03,0.11,-0.00
4.389,0.13,0.05,0.11,-0.03,0.12,-0.00
4.396,0.13,0.05,0.11,-0.03,0.13,-0.00
4.397,0.13,0.08,0.12,-0.03,0.13,-0.00
4.397,0.14,0.06,0.13,-0.03,0.13,-0.00
4.397,0.14,0.06,0.13,-0.03,0.13,-0.00
4.397,0.14,0.06,0.13,-0.02,0.13,-0.00
4.401,0.14,0.06,0.13,-0.02,0.14,-0.00
4.401,0.14,0.06,0.13,-0.02,0.14,-0.00
4.402,0.15,0.07,0.11,-0.02,0.14,-0.00
4.404,0.16,0.05,0.12,-0.02,0.14,-0.00
4.406,0.16,0.05,0.12,-0.02,0.14,-0.01
4.418,0.17,0.02,0.12,-0.02,0.14,-0.01
4.418,0.17,0.02,0.12,-0.02,0.14,-0.01
4.418,0.17,0.02,0.12,-0.02,0.14,-0.01
4.418,0.17,0.02,0.12,-0.02,0.14,-0.00
4.418,0.15,0.02,0.12,-0.02,0.14,-0.00
4.419,0.15,0.00,0.12,-0.02,0.14,-0.00
4.419,0.15,0.00,0.12,-0.01,0.13,-0.01
4.419,0.15,0.00,0.12,-0.01,0.13,-0.00
4.44,0.15,0.00,0.12,-0.01,0.13,-0.00
4.44,0.11,-0.03,0.12,-0.01,0.13,-0.00
4.44,0.11,-0.03,0.12,-0.01,0.12,-0.00
4.44,0.10,-0.06,0.11,-0.01,0.12,-0.00
4.441,0.10,-0.06,0.11,-0.01,0.12,0.00
4.441,0.10,-0.08,0.11,-0.01,0.12,0.00
4.441,0.10,-0.08,0.11,-0.01,0.11,0.00
4.441,0.10,-0.08,0.11,-0.01,0.10,0.00
4.441,0.10,-0.08,0.11,-0.01,0.09,0.00
4.442,0.12,-0.13,0.11,-0.01,0.09,0.00
4.442,0.12,-0.13,0.11,-0.01,0.08,0.01
4.442,0.13,-0.15,0.09,-0.01,0.08,0.01
4.442,0.13,-0.15,0.09,-0.01,0.08,0.01
4.442,0.13,-0.15,0.09,-0.01,0.07,0.01
4.443,0.10,-0.14,0.07,-0.01,0.07,0.01
4.443,0.10,-0.14,0.07,-0.01,0.06,0.01
4.445,0.09,-0.16,0.05,-0.01,0.06,0.01
4.446,0.09,-0.16,0.05,-0.01,0.05,0.01
4.448,0.09,-0.16,0.05,-0.01,0.04,0.01
4.448,0.12,-0.17,0.04,-0.01,0.04,0.01
4.448,0.12,-0.17,0.04,-0.01,0.03,0.01
4.452,0.15,-0.10,0.03,-0.01,0.03,0.01
4.452,0.15,-0.10,0.03,-0.01,0.02,0.01
4.458,0.15,-0.10,0.03,-0.02,0.01,0.01
4.474,0.15,-0.09,0.00,-0.02,0.01,0.01
4.474,0.15,-0.09,0.00,-0.02,0.00,0.01
4.474,0.15,-0.09,0.00,-0.02,-0.01,0.01
4.474,0.15,-0.09,0.00,-0.02,-0.01,0.00
4.474,0.12,-0.02,-0.02,-0.02,-0.01,0.00
4.475,0.12,0.01,-0.02,-0.02,-0.01,0.00
4.475,0.12,0.01,-0.02,-0.03,-0.02,0.00
4.475,0.12,0.01,-0.02,-0.03,-0.03,0.01
4.475,0.12,0.01,-0.02,-0.03,-0.04,0.01
4.475,0.09,0.07,-0.03,-0.03,-0.04,0.01
4.475,0.10,0.07,-0.01,-0.03,-0.04,0.01
4.475,0.10,0.07,-0.01,-0.03,-0.04,0.01
4.475,0.05,0.12,-0.02,-0.03,-0.04,0.01
4.476,0.05,0.12,-0.02,-0.03,-0.05,0.01
4.478,0.05,0.12,-0.02,-0.03,-0.06,0.01
4.479,0.05,0.10,-0.01,-0.03,-0.06,0.01
4.48,0.05,0.10,-0.01,-0.03,-0.06,0.01
4.48,0.05,0.10,-0.01,-0.03,-0.07,0.01
4.485,0.03,0.12,0.01,-0.03,-0.07,0.01
4.485,0.03,0.12,0.01,-0.03,-0.07,0.01
4.489,0.04,0.13,0.01,-0.03,-0.07,0.01
4.489,0.04,0.13,0.01,-0.03,-0.08,0.01
4.489,0.04,0.13,0.01,-0.03,-0.07,0.01
4.491,0.04,0.09,0.04,-0.03,-0.07,0.01
4.491,0.04,0.09,0.04,-0.03,-0.08,0.01
4.494,0.04,0.09,0.04,-0.03,-0.08,0.01
4.494,0.02,0.06,0.08,-0.03,-0.08,0.01
4.496,0.02,0.06,0.08,-0.02,-0.08,0.01
4.498,0.02,0.06,0.08,-0.02,-0.08,0.01
4.499,0.01,0.04,0.11,-0.02,-0.08,0.01
4.502,0.01,0.04,0.11,-0.01,-0.08,0.01
4.504,-0.01,-0.03,0.12,-0.01,-0.08,0.01
4.504,-0.01,-0.03,0.12,-0.01,-0.08,0.01
4.511,-0.01,-0.03,0.12,-0.00,-0.08,0.01
4.511,-0.01,-0.03,0.12,0.00,-0.08,0.01
4.512,0.00,-0.06,0.13,0.00,-0.08,0.01
4.513,0.00,-0.06,0.13,0.01,-0.08,0.01
4.513,-0.02,-0.12,0.13,0.01,-0.08,0.01
4.535,-0.02,-0.12,0.13,0.01,-0.08,0.01
4.536,-0.02,-0.12,0.13,0.02,-0.08,0.01
4.536,-0.02,-0.12,0.13,0.02,-0.08,0.01
4.537,-0.03,-0.14,0.12,0.02,-0.08,0.01
4.537,-0.02,-0.14,0.12,0.02,-0.08,0.01
4.537,-0.02,-0.19,0.10,0.02,-0.08,0.01
4.537,-0.02,-0.19,0.10,0.02,-0.08,0.01
4.538,-0.02,-0.19,0.10,0.02,-0.08,0.01
4.538,-0.02,-0.19,0.10,0.02,-0.07,0.00
4.538,-0.02,-0.15,0.08,0.02,-0.07,0.00
4.538,-0.02,-0.15,0.08,0.03,-0.07,0.00
4.538,-0.02,-0.15,0.08,0.03,-0.07,0.00
4.539,-0.00,-0.11,0.07,0.03,-0.07,0.00
4.539,0.00,-0.10,0.04,0.03,-0.07,0.00
4.539,0.00,-0.10,0.04,0.03,-0.06,0.00
4.54,0.00,-0.10,0.04,0.03,-0.06,0.00
4.54,0.00,-0.10,0.04,0.03,-0.06,-0.00
4.54,0.01,-0.09,0.00,0.03,-0.06,-0.00
4.54,0.01,-0.09,0.00,0.03,-0.05,-0.00
4.546,-0.00,-0.02,-0.02,0.03,-0.05,-0.00
4.546,-0.00,-0.02,-0.02,0.02,-0.04,-0.00
4.549,0.00,0.01,-0.05,0.02,-0.04,-0.00
4.55,0.00,0.01,-0.05,0.02,-0.04,-0.00
4.55,0.00,0.01,-0.05,0.02,-0.03,-0.01
4.552,0.00,0.01,-0.05,0.02,-0.02,-0.01
4.552,0.04,0.04,-0.07,0.02,-0.02,-0.01
4.556,0.04,0.04,-0.07,0.01,-0.02,-0.01
4.557,0.02,0.07,-0.07,0.01,-0.02,-0.01
4.557,0.02,0.07,-0.07,0.01,-0.01,-0.01
4.56,0.01,0.10,-0.07,0.01,-0.01,-0.01
4.561,0.01,0.10,-0.07,0.01,-0.00,-0.01
4.563,0.01,0.10,-0.07,0.00,0.01,-0.01
4.564,0.06,0.11,-0.08,0.00,0.01,-0.01
4.564,0.06,0.11,-0.08,0.00,0.02,-0.01
4.568,0.03,0.10,-0.04,0.00,0.02,-0.01
4.569,0.03,0.10,-0.04,0.00,0.03,-0.01
4.569,0.03,0.10,-0.04,-0.00,0.04,-0.01
4.573,0.03,0.10,-0.04,-0.00,0.05,-0.01
4.574,0.04,0.12,-0.03,-0.00,0.05,-0.01
4.577,0.05,0.10,-0.01,-0.00,0.05,-0.01
4.578,0.05,0.10,-0.01,-0.00,0.06,-0.01
4.578,0.05,0.10,-0.01,-0.00,0.07,-0.01
4.609,0.05,0.10,-0.01,-0.00,0.08,-0.01
4.609,0.05,0.08,0.01,-0.00,0.08,-0.01
4.61,0.05,0.08,0.01,-0.00,0.09,-0.01
4.61,0.05,0.09,0.05,-0.00,0.09,-0.01
4.61,0.05,0.09,0.05,0.00,0.10,-0.01
4.61,0.05,0.05,0.08,0.00,0.10,-0.01
4.61,0.05,0.05,0.08,0.01,0.11,-0.01
4.611,0.05,0.05,0.08,0.01,0.12,-0.01
4.611,0.04,0.06,0.11,0.01,0.12,-0.01
4.611,0.04,0.06,0.11,0.01,0.13,-0.01
4.611,0.04,0.06,0.11,0.01,0.14,-0.01
4.611,0.04,0.06,0.11,0.02,0.14,-0.01
4.612,0.02,0.03,0.14,0.02,0.14,-0.01
4.612,0.03,0.02,0.16,0.02,0.14,-0.01
4.612,0.03,0.02,0.16,0.02,0.15,-0.00
4.612,0.03,0.02,0.16,0.03,0.15,-0.00
4.612,0.02,0.03,0.19,0.03,0.15,-0.00
4.613,0.02,0.03,0.19,0.03,0.15,-0.00
4.613,0.04,0.00,0.18,0.03,0.15,-0.00
4.613,0.04,0.00,0.18,0.03,0.16,-0.00
4.625,0.04,0.00,0.18,0.04,0.15,-0.00
4.625,0.03,0.03,0.19,0.04,0.15,-0.00
4.625,0.03,0.03,0.19,0.04,0.15,-0.00
4.625,0.03,0.03,0.19,0.05,0.15,-0.00
4.625,0.03,0.03,0.19,0.05,0.15,-0.00
4.625,0.02,0.03,0.21,0.05,0.15,-0.00
4.625,0.00,0.04,0.20,0.05,0.15,-0.00
4.626,0.00,0.04,0.20,0.05,0.14,-0.00
4.626,0.00,0.04,0.20,0.05,0.14,-0.00
4.626,0.03,0.02,0.17,0.05,0.14,-0.00
4.626,0.03,0.02,0.17,0.06,0.13,-0.00
4.628,-0.00,0.04,0.16,0.06,0.13,-0.00
4.63,-0.00,0.04,0.16,0.06,0.12,-0.00
4.631,-0.00,0.04,0.16,0.06,0.12,-0.00
4.631,0.01,0.01,0.13,0.06,0.12,-0.00
4.632,0.01,0.01,0.13,0.05,0.11,-0.00
4.636,-0.01,-0.01,0.09,0.05,0.11,-0.00
4.636,-0.01,-0.01,0.09,0.05,0.10,0.00
4.636,-0.01,-0.01,0.09,0.05,0.09,0.00
4.641,-0.01,-0.01,0.09,0.05,0.08,0.00
4.641,-0.02,-0.03,0.07,0.05,0.08,0.00
4.642,-0.02,-0.03,0.07,0.05,0.07,0.00
4.644,0.02,-0.02,0.05,0.05,0.07,0.00
4.645,0.02,-0.02,0.05,0.05,0.06,0.00
4.648,0.02,-0.02,0.05,0.04,0.05,0.00
4.648,0.00,-0.04,0.05,0.04,0.05,0.00
4.648,0.00,-0.04,0.05,0.04,0.03,0.00
4.652,0.00,-0.04,0.05,0.04,0.02,0.00
4.652,0.01,-0.06,0.03,0.04,0.02,0.00
4.656,0.01,-0.06,0.03,0.04,0.02,0.00
4.656,0.01,-0.06,0.03,0.03,0.02,0.01
4.657,0.01,-0.06,0.03,0.03,0.01,0.01
4.662,-0.00,-0.09,0.02,0.03,0.01,0.01
4.662,-0.00,-0.09,0.02,0.02,-0.00,0.01
4.662,-0.00,-0.09,0.02,0.02,-0.01,0.01
4.664,-0.02,-0.07,0.02,0.02,-0.01,0.01
4.665,-0.02,-0.07,0.02,0.02,-0.03,0.01
4.668,-0.03,-0.06,0.06,0.02,-0.03,0.01
4.668,-0.03,-0.06,0.06,0.02,-0.03,0.01
4.669,-0.03,-0.06,0.06,0.02,-0.04,0.01
4.672,-0.03,-0.02,0.06,0.02,-0.04,0.01
4.672,-0.03,-0.02,0.06,0.01,-0.05,0.02
4.678,-0.07,-0.02,0.11,0.01,-0.05,0.02
4.678,-0.07,-0.02,0.11,0.01,-0.06,0.02
4.679,-0.07,-0.02,0.11,0.01,-0.07,0.02
4.68,-0.07,-0.02,0.11,0.01,-0.07,0.02
4.68,-0.07,-0.02,0.11,0.01,-0.08,0.02
4.68,-0.05,0.02,0.12,0.01,-0.08,0.02
4.684,-0.06,0.03,0.15,0.01,-0.08,0.02
4.684,-0.06,0.03,0.15,0.01,-0.08,0.02
4.688,-0.05,0.04,0.14,0.01,-0.08,0.02
4.688,-0.05,0.04,0.14,0.02,-0.09,0.02
4.688,-0.05,0.04,0.14,0.02,-0.09,0.02
4.693,-0.05,0.04,0.14,0.02,-0.10,0.02
4.693,-0.07,0.06,0.18,0.02,-0.10,0.02
4.694,-0.10,0.05,0.18,0.02,-0.10,0.02
4.698,-0.10,0.05,0.18,0.02,-0.10,0.02
4.698,-0.10,0.05,0.18,0.02,-0.10,0.02
4.698,-0.10,0.05,0.18,0.03,-0.11,0.02
4.698,-0.08,0.03,0.16,0.03,-0.11,0.02
4.701,-0.08,0.03,0.16,0.03,-0.11,0.02
4.704,-0.10,0.03,0.17,0.03,-0.11,0.02
4.704,-0.10,0.03,0.17,0.03,-0.11,0.01
4.709,-0.10,0.00,0.18,0.03,-0.11,0.01
4.71,-0.10,0.00,0.18,0.03,-0.11,0.01
4.71,-0.10,0.00,0.18,0.03,-0.11,0.01
4.712,-0.10,0.00,0.14,0.03,-0.11,0.01
4.713,-0.10,0.00,0.14,0.03,-0.11,0.01
4.716,-0.10,0.00,0.14,0.04,-0.11,0.01
4.716,-0.10,-0.01,0.14,0.04,-0.11,0.01
