
time,wx,wy,wz,ax,ay,az
0.006,0.02,-0.07,0.02,0.14,-0.02,-0.37
0.007,0.02,-0.07,0.02,0.04,-0.01,-0.51
0.008,0.00,-0.04,0.02,0.04,-0.01,-0.51
0.009,0.00,-0.04,0.02,-0.01,-0.00,-0.35
0.01,0.00,-0.04,0.02,-0.05,-0.00,0.05
0.011,-0.00,-0.04,0.02,-0.05,-0.00,0.05
0.012,0.01,-0.07,0.02,-0.05,-0.00,0.05
0.013,0.01,-0.07,0.02,-0.05,0.00,0.33
0.014,0.02,-0.11,0.02,-0.05,0.00,0.33
0.015,0.02,-0.11,0.02,-0.02,-0.00,0.20
0.016,0.03,-0.13,0.02,-0.02,-0.00,0.20
0.017,0.03,-0.13,0.02,0.02,-0.01,-0.09
0.024,0.03,-0.13,0.02,0.09,-0.00,-0.25
0.025,0.02,-0.13,0.01,0.09,-0.00,-0.25
0.025,0.02,-0.13,0.01,0.06,0.02,-0.26
0.026,0.01,-0.12,0.01,0.06,0.02,-0.26
0.027,0.01,-0.12,0.01,0.02,0.01,-0.22
0.027,0.00,-0.12,0.01,0.02,0.01,-0.22
0.029,0.00,-0.12,0.01,-0.00,0.02,-0.13
0.029,0.00,-0.12,0.01,-0.00,0.02,-0.13
0.036,0.00,-0.12,0.01,0.06,0.03,-0.14
0.037,0.01,-0.11,0.01,0.06,0.03,-0.14
0.038,0.01,-0.11,0.01,0.10,0.04,-0.14
0.039,0.02,-0.09,0.01,0.10,0.04,-0.14
0.045,0.02,-0.08,0.00,0.10,0.04,-0.14
0.045,0.02,-0.08,0.00,0.11,0.01,-0.04
0.051,0.01,-0.07,0.00,0.11,0.01,-0.04
0.052,0.01,-0.07,0.00,0.14,-0.01,-0.02
0.055,0.01,-0.08,0.00,0.14,-0.01,-0.02
0.055,0.01,-0.08,0.00,0.13,-0.02,-0.04
0.059,0.01,-0.08,0.00,0.14,-0.03,0.02
0.06,0.01,-0.08,-0.00,0.14,-0.03,0.02
0.065,0.01,-0.08,-0.00,0.14,-0.08,0.01
0.066,0.01,-0.08,-0.01,0.14,-0.08,0.01
0.069,0.01,-0.08,-0.01,0.14,-0.08,0.01
0.07,0.01,-0.08,-0.01,0.13,-0.10,0.04
0.074,0.01,-0.08,-0.01,0.13,-0.10,0.04
0.075,0.01,-0.08,-0.01,0.05,-0.11,-0.03
0.079,0.01,-0.08,-0.01,-0.03,-0.07,-0.13
0.08,0.01,-0.08,-0.02,-0.03,-0.07,-0.13
0.084,0.01,-0.06,-0.02,-0.03,-0.07,-0.13
0.085,0.01,-0.06,-0.02,-0.04,-0.04,-0.08
0.089,0.01,-0.05,-0.02,-0.04,-0.04,-0.08
0.09,0.01,-0.05,-0.02,-0.03,-0.04,-0.05
0.094,0.01,-0.05,-0.02,-0.06,-0.02,-0.02
0.095,0.00,-0.04,-0.01,-0.06,-0.02,-0.02
0.108,0.00,-0.04,-0.01,-0.07,-0.01,-0.03
0.11,0.00,-0.04,-0.01,-0.07,-0.01,-0.03
0.111,0.01,-0.03,-0.01,-0.07,-0.01,-0.03
0.112,0.01,-0.03,-0.01,-0.03,-0.02,-0.03
0.112,0.00,-0.02,-0.01,-0.03,-0.02,-0.03
0.114,0.00,-0.02,-0.01,0.01,0.03,-0.05
0.115,0.00,-0.02,-0.01,0.05,0.05,-0.12
0.116,-0.00,-0.02,-0.00,0.05,0.05,-0.12
0.13,-0.00,-0.02,-0.00,0.08,0.08,-0.09
0.132,0.00,0.00,-0.00,0.08,0.08,-0.09
0.133,0.00,0.00,-0.00,0.10,0.09,-0.06
0.135,0.00,0.01,-0.00,0.10,0.09,-0.06
0.136,0.00,0.02,0.00,0.10,0.09,-0.06
0.137,0.00,0.02,0.00,0.14,0.06,-0.07
0.138,0.00,0.03,0.00,0.14,0.06,-0.07
0.139,0.00,0.03,0.00,0.10,0.06,-0.06
0.14,0.01,0.03,0.01,0.10,0.06,-0.06
0.14,0.01,0.03,0.01,0.07,0.08,-0.04
0.144,0.01,0.03,0.01,0.06,0.08,0.00
0.146,0.00,0.03,0.01,0.06,0.08,0.00
0.151,0.00,0.03,0.01,0.06,0.08,0.00
0.152,0.00,0.03,0.01,0.00,0.05,0.04
0.155,0.00,0.03,0.01,-0.01,0.07,0.02
0.156,0.01,0.02,0.01,-0.01,0.07,0.02
0.16,0.01,0.02,0.01,-0.01,0.07,0.02
0.161,0.01,0.02,0.01,-0.02,0.06,0.02
0.165,0.00,0.02,0.01,-0.02,0.06,0.02
0.167,0.00,0.02,0.01,-0.01,0.04,-0.00
0.169,0.00,0.02,0.01,0.00,0.05,-0.03
0.171,0.00,0.02,0.01,0.00,0.05,-0.03
0.174,0.00,0.02,0.01,-0.01,0.04,0.00
0.175,0.00,0.02,0.01,-0.01,0.04,0.00
0.18,0.01,0.02,0.01,-0.01,0.04,0.00
0.181,0.01,0.02,0.01,-0.00,0.02,0.02
0.185,0.01,0.02,0.01,0.01,0.06,0.03
0.186,0.01,0.02,0.01,0.01,0.06,0.03
0.19,0.01,0.02,0.01,0.02,0.01,-0.01
0.191,0.01,0.02,0.01,0.02,0.01,-0.01
0.195,0.01,0.02,0.01,0.01,-0.00,-0.07
0.196,0.00,0.02,0.01,0.01,-0.00,-0.07
0.2,0.00,0.02,0.01,0.06,0.03,-0.03
0.202,0.00,0.03,0.01,0.06,0.03,-0.03
0.205,-0.00,0.04,0.01,0.06,0.03,-0.03
0.206,-0.00,0.04,0.01,0.08,0.03,-0.06
0.21,-0.00,0.04,0.01,0.09,0.00,-0.07
0.211,-0.01,0.05,0.00,0.09,0.00,-0.07
0.225,-0.01,0.05,0.00,0.09,-0.02,-0.02
0.226,-0.01,0.06,0.01,0.09,-0.02,-0.02
0.227,-0.00,0.06,0.01,0.09,-0.02,-0.02
0.228,-0.00,0.06,0.01,0.05,0.00,0.00
0.228,-0.00,0.07,0.00,0.05,0.00,0.00
0.229,-0.00,0.07,0.00,0.07,-0.02,0.06
0.23,-0.00,0.07,0.00,0.07,-0.02,0.06
0.232,-0.00,0.07,0.00,0.04,0.00,0.08
0.255,-0.00,0.07,0.00,0.07,-0.00,0.03
0.256,-0.00,0.07,-0.00,0.07,-0.00,0.03
0.257,-0.00,0.08,-0.00,0.07,-0.00,0.03
0.258,-0.00,0.08,-0.00,0.07,-0.02,0.07
0.259,-0.00,0.08,-0.00,0.05,-0.03,0.11
0.26,-0.01,0.08,-0.00,0.05,-0.03,0.11
0.261,0.00,0.09,-0.00,0.05,-0.03,0.11
0.261,0.00,0.09,-0.00,0.02,-0.01,0.15
0.262,0.00,0.09,-0.00,0.01,-0.02,0.18
0.263,0.00,0.09,-0.00,0.01,-0.02,0.18
0.265,0.00,0.09,0.00,0.01,-0.02,0.18
0.266,0.00,0.09,0.00,-0.02,-0.03,0.21
0.267,0.01,0.09,0.00,-0.02,-0.03,0.21
0.269,0.01,0.09,0.00,-0.04,-0.06,0.20
0.271,0.01,0.09,0.00,-0.04,-0.06,0.20
0.272,0.01,0.09,0.00,-0.05,-0.08,0.22
0.275,0.01,0.09,0.00,-0.05,-0.10,0.20
0.277,0.02,0.08,0.01,-0.05,-0.10,0.20
0.284,0.02,0.08,0.01,-0.04,-0.11,0.21
0.286,0.02,0.08,0.01,-0.04,-0.11,0.21
0.287,0.02,0.08,0.01,-0.04,-0.11,0.21
0.288,0.02,0.08,0.01,-0.05,-0.12,0.19
0.29,0.03,0.09,0.01,-0.05,-0.12,0.19
0.291,0.03,0.09,0.01,-0.02,-0.08,0.13
0.295,0.03,0.09,0.01,-0.02,-0.08,0.13
0.296,0.03,0.09,0.01,-0.01,-0.05,0.11
0.301,0.03,0.09,0.01,-0.01,-0.04,0.08
0.302,0.03,0.09,0.01,-0.01,-0.04,0.08
0.305,0.03,0.10,0.01,-0.01,-0.04,0.08
0.306,0.03,0.10,0.01,0.01,-0.01,0.08
0.31,0.04,0.10,0.01,0.01,-0.01,0.08
0.311,0.04,0.10,0.01,0.03,-0.01,0.13
0.316,0.04,0.10,0.01,0.05,0.01,0.11
0.318,0.04,0.10,0.02,0.05,0.01,0.11
0.32,0.04,0.10,0.02,0.04,0.03,0.15
0.321,0.04,0.11,0.02,0.04,0.03,0.15
0.325,0.05,0.11,0.02,0.04,0.03,0.15
0.326,0.05,0.11,0.02,0.03,0.01,0.18
0.331,0.05,0.11,0.02,0.01,0.03,0.19
0.333,0.06,0.11,0.02,0.01,0.03,0.19
0.336,0.06,0.11,0.02,0.01,0.03,0.19
0.336,0.06,0.11,0.02,0.03,0.03,0.21
0.34,0.06,0.11,0.02,0.03,0.03,0.21
0.341,0.06,0.11,0.02,0.03,-0.02,0.22
0.345,0.06,0.11,0.02,0.01,-0.01,0.22
0.346,0.07,0.11,0.02,0.01,-0.01,0.22
0.351,0.07,0.11,0.02,0.02,0.00,0.20
0.352,0.07,0.11,0.02,0.02,0.00,0.20
0.356,0.07,0.11,0.02,-0.01,0.01,0.15
0.356,0.08,0.11,0.02,-0.01,0.01,0.15
0.361,0.08,0.11,0.02,-0.03,-0.00,0.15
0.361,0.08,0.10,0.02,-0.03,-0.00,0.15
0.375,0.08,0.10,0.02,-0.03,-0.00,0.15
0.376,0.08,0.10,0.02,-0.02,-0.02,0.12
0.377,0.08,0.09,0.01,-0.02,-0.02,0.12
0.378,0.08,0.09,0.01,0.00,-0.02,0.10
0.378,0.08,0.09,0.01,0.01,-0.03,0.09
0.379,0.08,0.09,0.01,0.01,-0.03,0.09
0.382,0.08,0.09,0.01,-0.01,0.02,0.04
0.385,0.08,0.09,0.00,-0.01,0.02,0.04
0.387,0.08,0.08,-0.00,-0.01,0.02,0.04
0.388,0.08,0.08,-0.00,0.01,0.00,-0.01
0.391,0.08,0.08,-0.00,-0.01,0.01,-0.01
0.392,0.07,0.09,-0.00,-0.01,0.01,-0.01
0.396,0.07,0.09,-0.00,0.01,0.07,-0.06
0.397,0.07,0.09,-0.01,0.01,0.07,-0.06
0.401,0.07,0.10,-0.01,0.01,0.07,-0.06
0.402,0.07,0.10,-0.01,0.03,0.10,-0.09
0.406,0.07,0.10,-0.01,0.07,0.09,-0.05
0.407,0.07,0.11,-0.01,0.07,0.09,-0.05
0.411,0.07,0.11,-0.01,0.04,0.12,0.04
0.412,0.07,0.11,-0.01,0.04,0.12,0.04
0.417,0.07,0.11,-0.01,0.03,0.11,0.03
0.418,0.06,0.12,-0.02,0.03,0.11,0.03
0.421,0.06,0.12,-0.02,0.03,0.11,0.03
0.422,0.06,0.12,-0.02,0.04,0.16,0.05
0.426,0.06,0.12,-0.02,0.02,0.17,0.04
0.427,0.06,0.12,-0.02,0.02,0.17,0.04
0.434,0.05,0.11,-0.03,0.02,0.17,0.04
0.436,0.05,0.11,-0.03,0.02,0.13,0.05
0.436,0.05,0.11,-0.03,0.02,0.11,0.07
0.437,0.05,0.11,-0.03,0.02,0.11,0.07
0.441,0.05,0.11,-0.03,-0.00,0.13,0.07
0.442,0.05,0.10,-0.04,-0.00,0.13,0.07
0.446,0.04,0.09,-0.04,-0.00,0.13,0.07
0.447,0.04,0.09,-0.04,-0.01,0.11,0.07
0.452,0.04,0.09,-0.04,0.03,0.06,0.07
0.453,0.04,0.09,-0.04,0.03,0.06,0.07
0.456,0.04,0.09,-0.04,0.04,0.04,0.09
0.457,0.03,0.08,-0.04,0.04,0.04,0.09
0.461,0.03,0.08,-0.04,0.09,0.05,0.11
0.462,0.03,0.08,-0.05,0.09,0.05,0.11
0.467,0.03,0.07,-0.05,0.09,0.05,0.11
0.469,0.03,0.07,-0.05,0.01,0.02,0.01
0.471,0.03,0.07,-0.06,0.01,0.02,0.01
0.473,0.03,0.07,-0.06,0.01,0.03,0.03
0.477,0.03,0.07,-0.06,-0.02,0.04,0.01
0.478,0.03,0.07,-0.06,-0.02,0.04,0.01
0.483,0.03,0.07,-0.06,-0.04,0.03,0.03
0.484,0.02,0.08,-0.06,-0.04,0.03,0.03
0.501,0.02,0.08,-0.05,-0.04,0.03,0.03
0.503,0.02,0.08,-0.05,-0.03,0.01,0.10
0.504,0.02,0.08,-0.05,-0.03,0.01,0.10
0.506,0.02,0.08,-0.05,-0.08,-0.03,0.09
0.507,0.01,0.07,-0.05,-0.08,-0.03,0.09
0.508,0.01,0.07,-0.05,-0.10,-0.06,0.08
0.509,0.01,0.07,-0.05,-0.10,-0.06,0.08
0.511,0.01,0.07,-0.05,-0.08,-0.02,0.10
0.512,0.01,0.07,-0.05,-0.03,-0.02,0.06
0.513,0.01,0.06,-0.05,-0.03,-0.02,0.06
0.514,0.01,0.05,-0.05,-0.03,-0.02,0.06
0.514,0.01,0.05,-0.05,-0.01,-0.04,0.07
0.517,0.01,0.05,-0.05,-0.01,-0.04,0.07
0.519,0.01,0.05,-0.05,-0.06,-0.02,0.04
0.523,0.01,0.05,-0.05,-0.02,-0.04,0.05
0.524,0.01,0.05,-0.05,-0.02,-0.04,0.05
0.528,0.01,0.05,-0.05,-0.03,-0.06,0.10
0.528,0.01,0.05,-0.05,-0.03,-0.06,0.10
0.542,0.02,0.05,-0.04,-0.03,-0.06,0.10
0.544,0.02,0.05,-0.04,-0.02,-0.09,0.08
0.545,0.02,0.06,-0.04,-0.02,-0.09,0.08
0.545,0.02,0.06,-0.04,-0.03,-0.11,0.06
0.546,0.02,0.06,-0.04,-0.00,-0.11,0.04
0.547,0.02,0.07,-0.04,-0.00,-0.11,0.04
0.548,0.02,0.07,-0.04,0.03,-0.08,0.06
0.549,0.02,0.08,-0.04,0.03,-0.08,0.06
0.553,0.03,0.09,-0.03,0.03,-0.08,0.06
0.555,0.03,0.09,-0.03,0.04,-0.07,0.03
0.559,0.03,0.09,-0.03,0.09,-0.09,-0.02
0.56,0.02,0.10,-0.02,0.09,-0.09,-0.02
0.562,0.02,0.12,-0.02,0.09,-0.09,-0.02
0.563,0.02,0.12,-0.02,0.11,-0.08,-0.01
0.568,0.03,0.13,-0.02,0.11,-0.08,-0.01
0.569,0.03,0.13,-0.02,0.07,-0.08,-0.01
0.572,0.03,0.14,-0.01,0.07,-0.08,-0.01
0.573,0.03,0.14,-0.01,0.06,-0.06,0.03
0.577,0.03,0.14,-0.01,0.04,-0.11,0.03
0.578,0.03,0.15,-0.01,0.04,-0.11,0.03
0.584,0.04,0.15,-0.01,0.04,-0.11,0.03
0.585,0.04,0.15,-0.01,-0.03,-0.10,0.07
0.587,0.04,0.15,-0.01,-0.03,-0.10,0.07
0.588,0.04,0.15,-0.01,-0.07,-0.13,0.05
0.592,0.05,0.14,-0.00,-0.07,-0.13,0.05
0.593,0.05,0.14,-0.00,-0.09,-0.17,0.02
0.599,0.05,0.14,-0.00,-0.11,-0.16,-0.01
0.6,0.05,0.14,-0.00,-0.11,-0.16,-0.01
0.603,0.05,0.13,-0.00,-0.11,-0.16,-0.01
0.604,0.05,0.13,-0.00,-0.14,-0.18,0.03
0.608,0.06,0.11,-0.00,-0.14,-0.18,0.03
0.609,0.06,0.11,-0.00,-0.14,-0.19,0.04
0.613,0.06,0.10,-0.00,-0.14,-0.19,0.04
0.615,0.06,0.10,-0.00,-0.14,-0.20,0.05
0.618,0.07,0.10,-0.00,-0.14,-0.20,0.05
0.62,0.07,0.10,-0.00,-0.13,-0.22,0.08
0.623,0.07,0.09,-0.00,-0.13,-0.22,0.08
0.624,0.07,0.09,-0.00,-0.11,-0.21,0.08
0.628,0.08,0.08,-0.00,-0.11,-0.21,0.08
0.629,0.08,0.08,-0.00,-0.12,-0.19,0.04
0.633,0.08,0.07,-0.00,-0.12,-0.19,0.04
0.634,0.08,0.07,-0.00,-0.16,-0.16,0.02
0.638,0.08,0.07,-0.00,-0.23,-0.13,-0.06
0.639,0.09,0.06,-0.00,-0.23,-0.13,-0.06
0.643,0.10,0.05,-0.00,-0.23,-0.13,-0.06
0.644,0.10,0.05,-0.00,-0.25,-0.13,-0.02
0.659,0.10,0.04,-0.00,-0.25,-0.13,-0.02
0.66,0.10,0.04,-0.00,-0.24,-0.05,-0.04
0.661,0.10,0.04,0.00,-0.24,-0.05,-0.04
0.662,0.10,0.04,0.00,-0.28,-0.02,-0.01
0.663,0.10,0.04,0.00,-0.33,-0.01,0.06
0.664,0.10,0.03,0.00,-0.33,-0.01,0.06
0.665,0.10,0.01,0.01,-0.33,-0.01,0.06
0.666,0.10,0.01,0.01,-0.32,-0.02,0.11
0.678,0.10,-0.01,0.01,-0.32,-0.02,0.11
0.68,0.10,-0.01,0.01,-0.29,0.01,0.15
0.681,0.10,-0.04,0.02,-0.29,0.01,0.15
0.682,0.10,-0.04,0.02,-0.26,-0.00,0.14
0.683,0.10,-0.04,0.02,-0.21,-0.07,0.17
0.684,0.10,-0.05,0.02,-0.21,-0.07,0.17
0.685,0.10,-0.08,0.01,-0.21,-0.07,0.17
0.686,0.10,-0.08,0.01,-0.19,-0.06,0.18
0.693,0.10,-0.09,0.01,-0.19,-0.06,0.18
0.694,0.10,-0.09,0.01,-0.17,-0.10,0.18
0.695,0.10,-0.10,0.02,-0.17,-0.10,0.18
0.696,0.10,-0.10,0.02,-0.14,-0.15,0.21
0.699,0.10,-0.10,0.02,-0.07,-0.12,0.14
0.701,0.09,-0.11,0.01,-0.07,-0.12,0.14
0.704,0.09,-0.12,0.01,-0.07,-0.12,0.14
0.705,0.09,-0.12,0.01,-0.08,-0.12,0.14
0.708,0.09,-0.12,0.01,-0.08,-0.12,0.14
0.709,0.09,-0.12,0.01,-0.06,-0.09,0.16
0.714,0.09,-0.13,0.02,-0.06,-0.09,0.16
0.715,0.09,-0.13,0.02,-0.02,-0.05,0.12
0.719,0.09,-0.13,0.02,0.03,-0.01,0.06
0.721,0.08,-0.14,0.01,0.03,-0.01,0.06
0.724,0.08,-0.14,0.01,0.03,-0.01,0.06
0.725,0.08,-0.14,0.01,0.04,-0.01,0.07
0.729,0.07,-0.14,0.01,0.04,-0.01,0.07
0.73,0.07,-0.14,0.01,0.06,-0.01,0.04
0.734,0.07,-0.13,0.01,0.06,-0.01,0.04
0.735,0.07,-0.13,0.01,0.03,0.03,0.09
0.749,0.07,-0.13,0.01,0.03,0.09,0.10
0.751,0.06,-0.12,0.01,0.03,0.09,0.10
0.753,0.06,-0.12,0.01,0.03,0.09,0.10
0.754,0.06,-0.12,0.01,0.05,0.07,0.13
0.755,0.05,-0.12,0.00,0.05,0.07,0.13
0.756,0.05,-0.12,0.00,0.02,0.12,0.22
0.757,0.05,-0.12,0.00,0.02,0.12,0.22
0.759,0.05,-0.12,0.00,-0.03,0.12,0.29
0.76,0.04,-0.12,0.01,-0.03,0.12,0.29
0.761,0.04,-0.12,0.01,-0.10,0.17,0.32
0.765,0.04,-0.12,0.01,-0.13,0.14,0.40
0.766,0.03,-0.12,0.01,-0.13,0.14,0.40
0.769,0.03,-0.13,0.01,-0.13,0.14,0.40
0.77,0.03,-0.13,0.01,-0.18,0.11,0.48
0.774,0.03,-0.13,0.01,-0.18,0.11,0.48
0.775,0.03,-0.13,0.01,-0.20,0.11,0.55
0.779,0.03,-0.13,0.01,-0.22,0.10,0.65
0.78,0.02,-0.14,0.01,-0.22,0.10,0.65
0.792,0.02,-0.14,0.01,-0.22,0.10,0.65
0.794,0.02,-0.14,0.01,-0.19,0.07,0.72
0.795,0.02,-0.15,0.01,-0.19,0.07,0.72
0.795,0.02,-0.15,0.01,-0.14,-0.01,0.79
0.796,0.02,-0.15,0.01,-0.06,-0.05,0.77
0.797,0.02,-0.15,0.02,-0.06,-0.05,0.77
0.801,0.02,-0.15,0.02,-0.01,-0.06,0.75
0.802,0.02,-0.17,0.02,-0.01,-0.06,0.75
0.805,0.01,-0.17,0.02,-0.01,-0.06,0.75
0.806,0.01,-0.17,0.02,0.04,-0.11,0.73
0.809,0.01,-0.17,0.01,0.04,-0.11,0.73
0.81,0.01,-0.17,0.01,0.09,-0.16,0.64
0.816,0.01,-0.17,0.01,0.08,-0.22,0.56
0.818,0.01,-0.17,0.01,0.08,-0.22,0.56
0.82,0.02,-0.16,0.01,0.08,-0.22,0.56
0.821,0.02,-0.16,0.01,0.04,-0.27,0.57
0.824,0.02,-0.15,0.00,0.04,-0.27,0.57
0.825,0.02,-0.15,0.00,0.01,-0.23,0.57
0.829,0.02,-0.14,0.00,0.01,-0.23,0.57
0.831,0.02,-0.14,0.00,-0.03,-0.23,0.50
0.835,0.02,-0.12,0.01,-0.03,-0.23,0.50
0.836,0.02,-0.12,0.01,-0.03,-0.27,0.43
0.84,0.02,-0.12,0.01,-0.03,-0.27,0.43
0.841,0.02,-0.10,0.01,-0.03,-0.27,0.43
0.844,0.03,-0.09,0.01,-0.03,-0.27,0.43
0.846,0.03,-0.09,0.01,-0.04,-0.25,0.45
0.85,0.03,-0.09,0.00,-0.04,-0.25,0.45
0.852,0.03,-0.09,0.00,-0.06,-0.27,0.40
0.854,0.03,-0.08,-0.00,-0.06,-0.27,0.40
0.855,0.03,-0.08,-0.00,-0.04,-0.25,0.40
0.86,0.03,-0.08,-0.00,-0.08,-0.22,0.34
0.86,0.03,-0.09,-0.01,-0.08,-0.22,0.34
0.865,0.03,-0.09,-0.01,-0.11,-0.17,0.30
0.868,0.03,-0.09,-0.01,-0.11,-0.17,0.30
0.87,0.03,-0.10,-0.01,-0.11,-0.17,0.30
0.871,0.03,-0.10,-0.01,-0.11,-0.12,0.22
0.875,0.03,-0.10,-0.01,-0.11,-0.12,0.22
0.875,0.03,-0.10,-0.01,-0.13,-0.12,0.16
0.882,0.03,-0.10,-0.01,-0.13,-0.06,0.13
0.884,0.03,-0.10,-0.01,-0.13,-0.06,0.13
0.885,0.02,-0.10,-0.01,-0.13,-0.06,0.13
0.886,0.02,-0.10,-0.01,-0.14,-0.02,0.08
0.89,0.02,-0.10,-0.01,-0.11,-0.05,0.08
0.891,0.02,-0.10,-0.01,-0.11,-0.05,0.08
0.895,0.02,-0.10,-0.01,-0.07,-0.04,0.06
0.896,0.02,-0.10,-0.01,-0.07,-0.04,0.06
0.9,0.01,-0.10,-0.02,-0.07,-0.04,0.06
0.902,0.01,-0.10,-0.02,-0.08,-0.05,0.03
0.905,0.01,-0.10,-0.02,-0.08,-0.05,0.03
0.905,0.01,-0.10,-0.02,-0.10,-0.01,0.06
0.91,0.01,-0.10,-0.02,-0.10,-0.01,0.06
0.911,0.01,-0.10,-0.02,-0.13,0.01,0.05
0.916,0.00,-0.11,-0.01,-0.13,0.01,0.05
0.918,0.00,-0.11,-0.01,-0.09,0.01,0.03
0.92,-0.00,-0.11,-0.02,-0.09,0.01,0.03
0.921,-0.00,-0.11,-0.02,-0.09,0.00,0.05
0.925,-0.01,-0.11,-0.02,-0.09,0.00,0.05
0.926,-0.01,-0.11,-0.02,-0.09,0.01,0.06
0.938,-0.02,-0.12,-0.02,-0.09,0.01,0.06
0.94,-0.02,-0.12,-0.02,-0.06,-0.00,0.10
0.941,-0.02,-0.12,-0.02,-0.06,-0.00,0.10
0.942,-0.02,-0.12,-0.02,-0.09,0.01,0.15
0.943,-0.02,-0.12,-0.02,-0.12,0.01,0.20
0.943,-0.02,-0.13,-0.02,-0.12,0.01,0.20
0.945,-0.02,-0.15,-0.02,-0.12,0.01,0.20
0.946,-0.02,-0.15,-0.02,-0.14,-0.03,0.22
0.951,-0.03,-0.15,-0.02,-0.14,-0.03,0.22
0.953,-0.03,-0.15,-0.02,-0.18,-0.07,0.23
0.955,-0.03,-0.16,-0.02,-0.18,-0.07,0.23
0.956,-0.03,-0.16,-0.02,-0.16,-0.08,0.29
0.961,-0.03,-0.16,-0.02,-0.16,-0.06,0.32
0.962,-0.04,-0.17,-0.02,-0.16,-0.06,0.32
0.967,-0.04,-0.17,-0.03,-0.16,-0.06,0.32
0.968,-0.04,-0.17,-0.03,-0.16,-0.14,0.36
0.971,-0.04,-0.18,-0.03,-0.16,-0.14,0.36
0.972,-0.04,-0.18,-0.03,-0.13,-0.14,0.39
0.976,-0.04,-0.19,-0.03,-0.13,-0.14,0.39
0.976,-0.04,-0.19,-0.03,-0.13,-0.09,0.42
0.982,-0.04,-0.19,-0.03,-0.13,-0.13,0.48
0.985,-0.04,-0.21,-0.03,-0.13,-0.13,0.48
0.986,-0.04,-0.22,-0.04,-0.13,-0.13,0.48
0.986,-0.04,-0.22,-0.04,-0.14,-0.16,0.47
0.999,-0.04,-0.22,-0.04,-0.14,-0.16,0.47
1.0,-0.04,-0.22,-0.04,-0.16,-0.17,0.47
1.005,-0.04,-0.22,-0.04,-0.16,-0.17,0.47
1.006,-0.04,-0.22,-0.04,-0.16,-0.16,0.48
1.007,-0.03,-0.22,-0.03,-0.16,-0.16,0.48
1.008,-0.03,-0.22,-0.03,-0.18,-0.17,0.52
1.009,-0.03,-0.22,-0.03,-0.18,-0.17,0.52
1.01,-0.03,-0.22,-0.03,-0.12,-0.20,0.55
1.011,-0.03,-0.22,-0.03,-0.10,-0.25,0.56
1.012,-0.03,-0.23,-0.03,-0.10,-0.25,0.56
1.018,-0.03,-0.23,-0.03,-0.04,-0.23,0.55
1.019,-0.03,-0.23,-0.03,-0.04,-0.23,0.55
1.022,-0.03,-0.23,-0.03,0.02,-0.22,0.58
1.022,-0.03,-0.24,-0.04,0.02,-0.22,0.58
1.026,-0.03,-0.24,-0.04,0.02,-0.18,0.57
1.027,-0.03,-0.25,-0.04,0.02,-0.18,0.57
1.033,-0.03,-0.25,-0.04,0.12,-0.14,0.60
1.034,-0.02,-0.27,-0.05,0.12,-0.14,0.60
1.036,-0.02,-0.27,-0.05,0.09,-0.14,0.56
1.037,-0.03,-0.29,-0.05,0.09,-0.14,0.56
1.041,-0.03,-0.29,-0.05,0.06,-0.07,0.49
1.042,-0.03,-0.30,-0.05,0.06,-0.07,0.49
1.046,-0.04,-0.30,-0.05,0.06,-0.07,0.49
1.047,-0.04,-0.30,-0.05,0.11,-0.03,0.45
1.051,-0.04,-0.30,-0.05,0.16,-0.05,0.40
1.052,-0.04,-0.30,-0.05,0.16,-0.05,0.40
1.056,-0.04,-0.30,-0.05,0.15,-0.05,0.39
1.057,-0.03,-0.30,-0.05,0.15,-0.05,0.39
1.061,-0.03,-0.30,-0.05,0.09,-0.09,0.33
1.062,-0.03,-0.29,-0.05,0.09,-0.09,0.33
1.071,-0.03,-0.26,-0.04,0.09,-0.09,0.33
1.073,-0.03,-0.26,-0.04,0.07,-0.11,0.23
1.074,-0.03,-0.26,-0.04,0.05,-0.05,0.21
1.075,-0.02,-0.22,-0.03,0.05,-0.05,0.21
1.078,-0.02,-0.22,-0.03,0.04,-0.12,0.16
1.079,-0.02,-0.19,-0.03,0.04,-0.12,0.16
1.084,-0.02,-0.19,-0.03,0.07,-0.20,0.18
1.086,-0.03,-0.17,-0.02,0.07,-0.20,0.18
1.087,-0.03,-0.17,-0.02,0.05,-0.23,0.30
1.088,-0.02,-0.16,-0.02,0.05,-0.23,0.30
1.091,-0.02,-0.16,-0.02,-0.01,-0.28,0.34
1.092,-0.02,-0.16,-0.02,-0.01,-0.28,0.34
1.096,-0.02,-0.16,-0.02,-0.05,-0.29,0.31
1.097,-0.01,-0.16,-0.02,-0.05,-0.29,0.31
1.101,-0.00,-0.16,-0.01,-0.05,-0.29,0.31
1.103,-0.00,-0.16,-0.01,-0.01,-0.26,0.25
1.106,0.01,-0.17,-0.00,-0.01,-0.26,0.25
1.107,0.01,-0.17,-0.00,0.00,-0.25,0.21
1.111,0.01,-0.17,-0.00,-0.07,-0.25,0.10
1.112,0.01,-0.16,-0.00,-0.07,-0.25,0.10
1.117,0.01,-0.16,-0.00,-0.04,-0.20,0.00
1.119,0.02,-0.15,0.00,-0.04,-0.20,0.00
1.121,0.02,-0.15,0.00,-0.05,-0.22,-0.09
1.122,0.02,-0.14,0.00,-0.05,-0.22,-0.09
1.126,0.02,-0.12,0.00,-0.05,-0.22,-0.09
1.127,0.02,-0.12,0.00,-0.12,-0.22,-0.07
1.134,0.02,-0.12,0.00,-0.15,-0.21,-0.01
1.135,0.02,-0.10,0.00,-0.15,-0.21,-0.01
1.137,0.02,-0.10,0.00,-0.14,-0.22,0.05
1.137,0.03,-0.10,0.01,-0.14,-0.22,0.05
1.141,0.03,-0.10,0.01,-0.17,-0.19,0.04
1.142,0.04,-0.10,0.01,-0.17,-0.19,0.04
1.147,0.04,-0.10,0.01,-0.22,-0.17,-0.03
1.148,0.04,-0.11,0.01,-0.22,-0.17,-0.03
1.152,0.05,-0.11,0.01,-0.22,-0.17,-0.03
1.154,0.05,-0.11,0.01,-0.17,-0.10,-0.11
1.157,0.05,-0.11,0.01,-0.09,-0.12,-0.07
1.158,0.04,-0.11,0.01,-0.09,-0.12,-0.07
1.162,0.04,-0.11,0.01,-0.06,-0.08,0.01
1.163,0.04,-0.11,0.01,-0.06,-0.08,0.01
1.167,0.03,-0.12,0.00,-0.06,-0.08,0.01
1.169,0.03,-0.12,0.00,-0.05,-0.01,0.14
1.171,0.03,-0.12,0.00,-0.04,0.05,0.16
1.172,0.03,-0.14,-0.00,-0.04,0.05,0.16
1.177,0.03,-0.14,-0.00,-0.08,0.08,0.17
1.178,0.03,-0.15,-0.01,-0.08,0.08,0.17
1.182,0.02,-0.17,-0.01,-0.08,0.08,0.17
1.185,0.02,-0.17,-0.01,-0.00,0.08,0.13
1.187,0.02,-0.18,-0.01,-0.00,0.08,0.13
1.188,0.02,-0.18,-0.01,0.07,0.09,0.01
1.192,0.01,-0.18,-0.02,0.07,0.09,0.01
1.193,0.01,-0.18,-0.02,0.09,0.08,0.02
1.199,0.01,-0.18,-0.02,0.14,0.08,-0.05
1.201,-0.00,-0.17,-0.02,0.14,0.08,-0.05
1.202,-0.02,-0.17,-0.03,0.14,0.08,-0.05
1.203,-0.02,-0.17,-0.03,0.12,0.12,-0.04
1.207,-0.02,-0.17,-0.03,0.16,0.07,-0.07
1.208,-0.03,-0.17,-0.03,0.16,0.07,-0.07
1.212,-0.03,-0.17,-0.03,0.14,0.07,-0.07
1.213,-0.04,-0.16,-0.04,0.14,0.07,-0.07
1.222,-0.05,-0.17,-0.05,0.14,0.07,-0.07
1.224,-0.05,-0.17,-0.05,0.15,0.10,0.01
1.225,-0.06,-0.18,-0.05,0.15,0.10,0.01
1.226,-0.06,-0.18,-0.05,0.05,0.10,-0.02
1.227,-0.06,-0.18,-0.05,0.02,0.06,-0.10
1.228,-0.06,-0.19,-0.05,0.02,0.06,-0.10
1.236,-0.06,-0.19,-0.05,-0.07,0.05,-0.20
1.238,-0.07,-0.19,-0.06,-0.07,0.05,-0.20
1.239,-0.08,-0.19,-0.06,-0.07,0.05,-0.20
1.24,-0.08,-0.19,-0.06,-0.10,0.05,-0.24
1.257,-0.08,-0.19,-0.06,-0.10,0.06,-0.23
1.258,-0.10,-0.19,-0.06,-0.10,0.06,-0.23
1.259,-0.10,-0.19,-0.06,-0.06,0.01,-0.23
1.26,-0.12,-0.19,-0.06,-0.06,0.01,-0.23
1.261,-0.13,-0.19,-0.07,-0.06,0.01,-0.23
1.262,-0.13,-0.19,-0.07,0.03,-0.02,-0.18
1.263,-0.13,-0.19,-0.07,0.03,-0.05,-0.15
1.264,-0.15,-0.21,-0.08,0.03,-0.05,-0.15
1.265,-0.15,-0.21,-0.08,0.00,-0.06,-0.15
1.266,-0.16,-0.24,-0.09,0.00,-0.06,-0.15
1.27,-0.17,-0.26,-0.10,0.00,-0.06,-0.15
1.271,-0.17,-0.26,-0.10,-0.00,-0.04,-0.16
1.273,-0.17,-0.26,-0.10,-0.10,-0.00,-0.20
1.274,-0.19,-0.28,-0.11,-0.10,-0.00,-0.20
1.278,-0.20,-0.29,-0.12,-0.10,-0.00,-0.20
1.279,-0.20,-0.29,-0.12,-0.15,-0.00,-0.31
1.284,-0.21,-0.30,-0.12,-0.15,-0.00,-0.31
1.285,-0.21,-0.30,-0.12,-0.19,0.02,-0.44
1.288,-0.21,-0.30,-0.12,-0.24,-0.04,-0.46
1.289,-0.22,-0.31,-0.12,-0.24,-0.04,-0.46
1.293,-0.23,-0.31,-0.12,-0.24,-0.04,-0.46
1.294,-0.23,-0.31,-0.12,-0.22,-0.05,-0.51
1.297,-0.24,-0.31,-0.12,-0.22,-0.05,-0.51
1.298,-0.24,-0.31,-0.12,-0.26,-0.08,-0.47
1.303,-0.24,-0.31,-0.12,-0.31,-0.13,-0.44
1.304,-0.25,-0.32,-0.12,-0.31,-0.13,-0.44
1.308,-0.26,-0.32,-0.11,-0.31,-0.13,-0.44
1.309,-0.26,-0.32,-0.11,-0.25,-0.20,-0.49
1.313,-0.26,-0.32,-0.11,-0.25,-0.20,-0.49
1.314,-0.26,-0.32,-0.11,-0.18,-0.24,-0.48
1.324,-0.26,-0.34,-0.11,-0.18,-0.24,-0.48
1.326,-0.26,-0.34,-0.11,-0.17,-0.31,-0.48
1.327,-0.27,-0.34,-0.11,-0.17,-0.31,-0.48
1.328,-0.27,-0.34,-0.11,-0.08,-0.40,-0.49
1.329,-0.27,-0.34,-0.11,-0.01,-0.45,-0.46
1.33,-0.26,-0.34,-0.11,-0.01,-0.45,-0.46
1.333,-0.26,-0.34,-0.11,0.05,-0.52,-0.47
1.334,-0.26,-0.34,-0.11,0.05,-0.52,-0.47
1.339,-0.26,-0.33,-0.11,0.05,-0.52,-0.47
1.34,-0.26,-0.33,-0.11,0.18,-0.56,-0.45
1.343,-0.26,-0.32,-0.11,0.18,-0.56,-0.45
1.344,-0.26,-0.32,-0.11,0.17,-0.60,-0.47
1.349,-0.26,-0.32,-0.11,0.17,-0.61,-0.52
1.351,-0.25,-0.30,-0.11,0.17,-0.61,-0.52
1.353,-0.25,-0.28,-0.11,0.17,-0.61,-0.52
1.354,-0.25,-0.28,-0.11,0.24,-0.57,-0.57
1.358,-0.26,-0.25,-0.11,0.24,-0.57,-0.57
1.359,-0.26,-0.25,-0.11,0.26,-0.56,-0.57
1.365,-0.26,-0.25,-0.11,0.25,-0.54,-0.62
1.367,-0.26,-0.23,-0.11,0.25,-0.54,-0.62
1.368,-0.26,-0.21,-0.11,0.25,-0.54,-0.62
1.369,-0.26,-0.21,-0.11,0.21,-0.49,-0.61
1.373,-0.26,-0.20,-0.12,0.21,-0.49,-0.61
1.374,-0.26,-0.20,-0.12,0.19,-0.42,-0.62
1.378,-0.26,-0.18,-0.12,0.19,-0.42,-0.62
1.38,-0.26,-0.18,-0.12,0.15,-0.38,-0.58
1.384,-0.26,-0.18,-0.12,0.07,-0.29,-0.62
1.385,-0.26,-0.17,-0.13,0.07,-0.29,-0.62
1.388,-0.26,-0.17,-0.13,0.07,-0.29,-0.62
1.39,-0.26,-0.17,-0.13,0.05,-0.17,-0.65
1.394,-0.26,-0.16,-0.13,0.05,-0.17,-0.65
1.394,-0.26,-0.16,-0.13,0.01,-0.10,-0.65
1.399,-0.26,-0.16,-0.13,-0.01,0.02,-0.60
1.401,-0.26,-0.15,-0.12,-0.01,0.02,-0.60
1.404,-0.26,-0.15,-0.12,-0.01,0.10,-0.64
1.404,-0.26,-0.12,-0.12,-0.01,0.10,-0.64
1.409,-0.26,-0.09,-0.12,-0.01,0.10,-0.64
1.41,-0.26,-0.09,-0.12,-0.12,0.17,-0.62
1.416,-0.26,-0.06,-0.12,-0.12,0.17,-0.62
1.417,-0.26,-0.06,-0.12,-0.21,0.31,-0.56
1.419,-0.26,-0.03,-0.11,-0.21,0.31,-0.56
1.42,-0.26,-0.03,-0.11,-0.29,0.36,-0.50
1.424,-0.26,0.01,-0.10,-0.29,0.36,-0.50
1.425,-0.26,0.01,-0.10,-0.36,0.42,-0.48
1.429,-0.26,0.01,-0.10,-0.51,0.47,-0.45
1.43,-0.26,0.03,-0.09,-0.51,0.47,-0.45
1.434,-0.26,0.03,-0.09,-0.68,0.55,-0.42
1.436,-0.26,0.04,-0.08,-0.68,0.55,-0.42
1.439,-0.26,0.04,-0.08,-0.79,0.60,-0.30
1.44,-0.26,0.03,-0.05,-0.79,0.60,-0.30
1.444,-0.25,0.02,-0.03,-0.79,0.60,-0.30
1.445,-0.25,0.02,-0.03,-0.76,0.62,-0.23
1.455,-0.25,0.02,-0.03,-0.78,0.65,-0.17
1.458,-0.24,-0.01,-0.01,-0.78,0.65,-0.17
1.459,-0.23,-0.02,0.01,-0.78,0.65,-0.17
1.46,-0.23,-0.02,0.01,-0.73,0.63,-0.12
1.461,-0.23,-0.02,0.01,-0.67,0.65,-0.04
1.462,-0.22,-0.03,0.03,-0.67,0.65,-0.04
1.468,-0.22,-0.03,0.03,-0.49,0.62,0.05
1.47,-0.20,-0.04,0.05,-0.49,0.62,0.05
1.471,-0.19,-0.06,0.06,-0.49,0.62,0.05
1.472,-0.19,-0.06,0.06,-0.27,0.61,0.17
1.474,-0.19,-0.06,0.06,0.03,0.59,0.33
1.475,-0.18,-0.09,0.06,0.03,0.59,0.33
1.48,-0.18,-0.09,0.06,0.37,0.52,0.49
1.481,-0.16,-0.12,0.06,0.37,0.52,0.49
1.484,-0.16,-0.12,0.06,0.70,0.40,0.63
1.486,-0.14,-0.15,0.06,0.70,0.40,0.63
1.489,-0.11,-0.17,0.05,0.70,0.40,0.63
1.49,-0.11,-0.17,0.05,1.00,0.28,0.64
1.507,-0.11,-0.17,0.05,1.27,0.25,0.52
1.508,-0.08,-0.18,0.03,1.27,0.25,0.52
1.509,-0.08,-0.18,0.03,1.45,0.24,0.42
1.51,-0.06,-0.19,0.01,1.45,0.24,0.42
1.511,-0.06,-0.19,0.01,1.56,0.24,0.36
1.512,-0.03,-0.18,-0.01,1.56,0.24,0.36
1.513,-0.01,-0.17,-0.03,1.56,0.24,0.36
1.515,-0.01,-0.17,-0.03,1.54,0.26,0.28
1.518,0.01,-0.15,-0.05,1.54,0.26,0.28
1.52,0.01,-0.15,-0.05,1.44,0.27,0.23
1.521,0.02,-0.11,-0.07,1.44,0.27,0.23
1.521,0.02,-0.11,-0.07,1.36,0.27,0.22
1.524,0.02,-0.11,-0.07,1.34,0.18,0.21
1.525,0.04,-0.08,-0.08,1.34,0.18,0.21
1.53,0.04,-0.08,-0.08,1.21,0.13,0.24
1.531,0.06,-0.05,-0.10,1.21,0.13,0.24
1.534,0.08,-0.02,-0.12,1.21,0.13,0.24
1.536,0.08,-0.02,-0.12,1.06,0.15,0.35
1.539,0.11,-0.01,-0.12,1.06,0.15,0.35
1.54,0.11,-0.01,-0.12,0.85,0.10,0.45
1.544,0.14,-0.01,-0.12,0.85,0.10,0.45
1.545,0.14,-0.01,-0.12,0.67,0.01,0.51
1.55,0.14,-0.01,-0.12,0.52,0.03,0.58
1.551,0.18,-0.01,-0.12,0.52,0.03,0.58
1.554,0.21,-0.01,-0.12,0.52,0.03,0.58
1.555,0.21,-0.01,-0.12,0.38,-0.02,0.59
1.559,0.21,-0.01,-0.12,0.19,-0.08,0.60
1.56,0.25,-0.01,-0.12,0.19,-0.08,0.60
1.565,0.25,-0.01,-0.12,0.03,-0.05,0.67
1.567,0.29,-0.00,-0.12,0.03,-0.05,0.67
1.57,0.29,-0.00,-0.12,-0.12,0.01,0.70
1.571,0.33,-0.01,-0.11,-0.12,0.01,0.70
1.575,0.33,-0.01,-0.11,-0.25,0.05,0.69
1.576,0.37,-0.02,-0.10,-0.25,0.05,0.69
1.58,0.37,-0.02,-0.10,-0.40,0.08,0.59
1.581,0.41,-0.04,-0.08,-0.40,0.08,0.59
1.585,0.43,-0.06,-0.07,-0.40,0.08,0.59
1.587,0.43,-0.06,-0.07,-0.52,0.14,0.47
1.59,0.45,-0.09,-0.06,-0.52,0.14,0.47
1.591,0.45,-0.09,-0.06,-0.57,0.26,0.42
1.595,0.47,-0.13,-0.06,-0.57,0.26,0.42
1.596,0.47,-0.13,-0.06,-0.64,0.37,0.37
1.608,0.49,-0.17,-0.06,-0.64,0.37,0.37
1.609,0.49,-0.17,-0.06,-0.73,0.54,0.31
1.61,0.50,-0.20,-0.06,-0.73,0.54,0.31
1.611,0.50,-0.20,-0.06,-0.77,0.67,0.20
1.612,0.51,-0.23,-0.06,-0.77,0.67,0.20
1.614,0.51,-0.23,-0.06,-0.78,0.81,0.16
1.615,0.52,-0.25,-0.06,-0.78,0.81,0.16
1.615,0.52,-0.25,-0.06,-0.75,0.94,0.04
1.62,0.52,-0.25,-0.06,-0.71,1.09,-0.02
1.622,0.52,-0.26,-0.07,-0.71,1.09,-0.02
1.625,0.52,-0.26,-0.07,-0.73,1.15,-0.01
1.626,0.51,-0.28,-0.07,-0.73,1.15,-0.01
1.63,0.51,-0.28,-0.07,-0.70,1.25,-0.07
1.631,0.50,-0.29,-0.07,-0.70,1.25,-0.07
1.635,0.49,-0.29,-0.07,-0.70,1.25,-0.07
1.637,0.49,-0.29,-0.07,-0.66,1.32,-0.08
1.64,0.49,-0.29,-0.07,-0.63,1.39,-0.04
1.641,0.47,-0.30,-0.07,-0.63,1.39,-0.04
1.645,0.47,-0.30,-0.07,-0.61,1.39,-0.07
1.646,0.46,-0.29,-0.06,-0.61,1.39,-0.07
1.651,0.44,-0.28,-0.06,-0.61,1.39,-0.07
1.653,0.44,-0.28,-0.06,-0.56,1.37,-0.10
1.655,0.44,-0.28,-0.06,-0.49,1.37,-0.03
1.656,0.41,-0.28,-0.05,-0.49,1.37,-0.03
1.66,0.41,-0.28,-0.05,-0.41,1.34,-0.04
1.661,0.39,-0.27,-0.05,-0.41,1.34,-0.04
1.665,0.37,-0.26,-0.05,-0.41,1.34,-0.04
1.668,0.37,-0.26,-0.05,-0.34,1.25,-0.04
1.67,0.35,-0.26,-0.05,-0.34,1.25,-0.04
1.671,0.35,-0.26,-0.05,-0.35,1.19,-0.02
1.675,0.32,-0.27,-0.05,-0.35,1.19,-0.02
1.676,0.32,-0.27,-0.05,-0.36,1.13,-0.06
1.683,0.30,-0.27,-0.05,-0.36,1.13,-0.06
1.685,0.30,-0.27,-0.05,-0.38,1.08,-0.07
1.686,0.30,-0.27,-0.05,-0.38,1.04,-0.00
1.687,0.27,-0.27,-0.05,-0.38,1.04,-0.00
1.691,0.26,-0.27,-0.05,-0.38,1.04,-0.00
1.692,0.26,-0.27,-0.05,-0.38,1.02,0.07
1.696,0.26,-0.27,-0.05,-0.32,0.97,0.03
1.697,0.24,-0.26,-0.05,-0.32,0.97,0.03
1.701,0.22,-0.25,-0.05,-0.32,0.97,0.03
1.703,0.22,-0.25,-0.05,-0.28,0.90,0.14
1.706,0.22,-0.25,-0.05,-0.25,0.86,0.29
1.707,0.21,-0.25,-0.05,-0.25,0.86,0.29
1.711,0.21,-0.25,-0.05,-0.22,0.84,0.28
1.712,0.19,-0.25,-0.05,-0.22,0.84,0.28
1.717,0.19,-0.25,-0.05,-0.23,0.78,0.37
1.718,0.17,-0.25,-0.05,-0.23,0.78,0.37
1.721,0.17,-0.25,-0.05,-0.16,0.74,0.53
1.722,0.16,-0.26,-0.04,-0.16,0.74,0.53
1.726,0.16,-0.26,-0.04,-0.16,0.69,0.55
1.727,0.14,-0.26,-0.03,-0.16,0.69,0.55
1.738,0.14,-0.26,-0.03,-0.09,0.61,0.50
1.74,0.13,-0.27,-0.03,-0.09,0.61,0.50
1.741,0.13,-0.27,-0.03,-0.03,0.57,0.50
1.742,0.12,-0.29,-0.03,-0.03,0.57,0.50
1.743,0.12,-0.29,-0.03,0.02,0.52,0.50
1.744,0.11,-0.30,-0.03,0.02,0.52,0.50
1.759,0.11,-0.30,-0.03,0.04,0.53,0.50
1.771,0.10,-0.30,-0.04,0.04,0.53,0.50
1.773,0.09,-0.29,-0.06,0.04,0.53,0.50
1.774,0.09,-0.29,-0.06,0.03,0.51,0.52
1.775,0.09,-0.29,-0.06,0.10,0.54,0.44
1.775,0.08,-0.29,-0.07,0.10,0.54,0.44
1.776,0.08,-0.29,-0.07,0.07,0.58,0.52
1.777,0.07,-0.27,-0.08,0.07,0.58,0.52
1.778,0.07,-0.27,-0.08,-0.07,0.65,0.68
1.78,0.06,-0.27,-0.08,-0.07,0.65,0.68
1.78,0.07,-0.27,-0.07,-0.07,0.65,0.68
1.781,0.07,-0.27,-0.07,-0.13,0.67,0.73
1.782,0.07,-0.27,-0.06,-0.13,0.67,0.73
1.783,0.07,-0.27,-0.06,-0.10,0.65,0.71
1.784,0.07,-0.27,-0.06,-0.12,0.61,0.77
1.785,0.07,-0.26,-0.04,-0.12,0.61,0.77
1.786,0.07,-0.26,-0.04,-0.09,0.52,0.80
1.787,0.08,-0.25,-0.02,-0.09,0.52,0.80
1.791,0.09,-0.24,-0.01,-0.09,0.52,0.80
1.793,0.09,-0.24,-0.01,-0.02,0.40,0.77
1.796,0.10,-0.22,0.01,-0.02,0.40,0.77
1.797,0.10,-0.22,0.01,-0.03,0.27,0.85
1.801,0.11,-0.19,0.01,-0.03,0.27,0.85
1.803,0.11,-0.19,0.01,-0.00,0.22,0.99
1.806,0.11,-0.19,0.01,-0.13,0.22,1.22
1.807,0.13,-0.17,0.01,-0.13,0.22,1.22
1.811,0.16,-0.17,0.02,-0.13,0.22,1.22
1.812,0.16,-0.17,0.02,-0.18,0.18,1.30
1.817,0.16,-0.17,0.02,-0.14,0.17,1.32
1.818,0.17,-0.17,0.03,-0.14,0.17,1.32
1.821,0.19,-0.18,0.04,-0.14,0.17,1.32
1.822,0.19,-0.18,0.04,-0.13,0.17,1.43
1.826,0.19,-0.18,0.04,-0.09,0.15,1.51
1.827,0.21,-0.19,0.04,-0.09,0.15,1.51
1.832,0.22,-0.20,0.04,-0.09,0.15,1.51
1.833,0.22,-0.20,0.04,0.04,0.20,1.53
1.837,0.24,-0.20,0.03,0.04,0.20,1.53
1.838,0.24,-0.20,0.03,0.16,0.23,1.53
1.841,0.26,-0.18,0.02,0.16,0.23,1.53
1.842,0.26,-0.18,0.02,0.21,0.29,1.50
1.849,0.27,-0.15,0.02,0.21,0.29,1.50
1.85,0.27,-0.15,0.02,0.26,0.37,1.46
1.852,0.29,-0.11,0.01,0.26,0.37,1.46
1.853,0.29,-0.11,0.01,0.23,0.47,1.39
1.857,0.29,-0.11,0.01,0.21,0.51,1.31
1.858,0.29,-0.08,0.02,0.21,0.51,1.31
1.862,0.29,-0.08,0.02,0.15,0.56,1.32
1.863,0.30,-0.05,0.03,0.15,0.56,1.32
1.867,0.31,-0.02,0.04,0.15,0.56,1.32
1.868,0.31,-0.02,0.04,0.08,0.61,1.42
1.872,0.32,0.01,0.06,0.08,0.61,1.42
1.872,0.32,0.01,0.06,0.03,0.66,1.45
1.877,0.34,0.05,0.07,0.03,0.66,1.45
1.878,0.34,0.05,0.07,-0.05,0.72,1.56
1.887,0.34,0.05,0.07,-0.16,0.78,1.70
1.888,0.36,0.07,0.08,-0.16,0.78,1.70
1.889,0.36,0.07,0.08,-0.19,0.92,1.75
1.89,0.37,0.07,0.10,-0.19,0.92,1.75
1.894,0.37,0.07,0.10,-0.20,1.00,1.73
1.895,0.38,0.07,0.12,-0.20,1.00,1.73
1.9,0.39,0.07,0.13,-0.20,1.00,1.73
1.902,0.39,0.07,0.13,-0.20,0.99,1.72
1.903,0.40,0.07,0.14,-0.20,0.99,1.72
1.903,0.40,0.07,0.14,-0.17,0.91,1.77
1.907,0.40,0.07,0.14,-0.26,0.82,1.86
1.908,0.41,0.07,0.15,-0.26,0.82,1.86
1.912,0.41,0.07,0.15,-0.32,0.74,1.99
1.913,0.42,0.09,0.17,-0.32,0.74,1.99
1.917,0.45,0.10,0.18,-0.32,0.74,1.99
1.918,0.45,0.10,0.18,-0.31,0.65,2.15
1.922,0.47,0.11,0.19,-0.31,0.65,2.15
1.923,0.47,0.11,0.19,-0.29,0.65,2.16
1.927,0.47,0.11,0.19,-0.14,0.68,1.98
1.928,0.49,0.10,0.20,-0.14,0.68,1.98
1.933,0.50,0.07,0.20,-0.14,0.68,1.98
1.934,0.50,0.07,0.20,0.05,0.74,1.78
1.938,0.50,0.03,0.20,0.05,0.74,1.78
1.939,0.50,0.03,0.20,0.41,0.76,1.45
1.942,0.50,0.03,0.20,0.98,0.80,1.03
1.943,0.48,-0.04,0.19,0.98,0.80,1.03
1.95,0.48,-0.04,0.19,1.58,0.75,0.61
1.951,0.45,-0.14,0.16,1.58,0.75,0.61
1.952,0.41,-0.25,0.12,1.58,0.75,0.61
1.953,0.41,-0.25,0.12,2.11,0.65,0.20
1.957,0.37,-0.36,0.07,2.11,0.65,0.20
1.958,0.37,-0.36,0.07,2.62,0.64,-0.23
1.963,0.34,-0.45,0.02,2.62,0.64,-0.23
1.964,0.34,-0.45,0.02,2.98,0.79,-0.59
1.968,0.34,-0.45,0.02,3.34,0.97,-0.95
1.969,0.32,-0.48,-0.03,3.34,0.97,-0.95
1.973,0.29,-0.45,-0.09,3.34,0.97,-0.95
1.974,0.29,-0.45,-0.09,3.55,1.15,-1.30
1.977,0.26,-0.34,-0.14,3.55,1.15,-1.30
1.979,0.26,-0.34,-0.14,3.54,1.23,-1.55
1.983,0.22,-0.17,-0.17,3.54,1.23,-1.55
1.985,0.22,-0.17,-0.17,3.29,1.33,-1.79
1.988,0.22,-0.17,-0.17,2.83,1.37,-1.79
1.989,0.15,0.03,-0.18,2.83,1.37,-1.79
1.993,0.08,0.22,-0.16,2.83,1.37,-1.79
1.994,0.08,0.22,-0.16,2.28,1.33,-1.57
2.02,0.01,0.35,-0.13,2.28,1.33,-1.57
2.021,0.01,0.35,-0.13,1.79,1.24,-0.94
2.022,-0.04,0.43,-0.09,1.79,1.24,-0.94
2.023,-0.04,0.43,-0.09,1.39,1.07,-0.31
2.023,-0.04,0.43,-0.09,0.97,0.89,0.29
2.024,-0.06,0.47,-0.06,0.97,0.89,0.29
2.025,-0.04,0.48,-0.04,0.97,0.89,0.29
2.026,-0.04,0.48,-0.04,0.61,0.78,0.73
2.026,-0.02,0.47,-0.02,0.61,0.78,0.73
2.027,-0.02,0.47,-0.02,0.38,0.73,0.84
2.028,-0.01,0.45,-0.01,0.38,0.73,0.84
2.03,-0.01,0.45,-0.01,0.18,0.69,0.81
2.031,-0.01,0.45,-0.01,0.01,0.73,0.65
2.031,0.00,0.42,0.01,0.01,0.73,0.65
2.035,-0.01,0.40,0.04,0.01,0.73,0.65
2.036,-0.01,0.40,0.04,-0.15,0.69,0.41
2.038,-0.02,0.37,0.06,-0.15,0.69,0.41
2.039,-0.02,0.37,0.06,-0.26,0.66,0.26
2.044,-0.04,0.33,0.09,-0.26,0.66,0.26
2.045,-0.04,0.33,0.09,-0.28,0.68,0.14
2.048,-0.05,0.30,0.11,-0.28,0.68,0.14
2.049,-0.05,0.30,0.11,-0.35,0.69,0.05
2.054,-0.05,0.27,0.13,-0.35,0.69,0.05
2.055,-0.05,0.27,0.13,-0.34,0.65,-0.05
2.059,-0.04,0.25,0.15,-0.34,0.65,-0.05
2.06,-0.04,0.25,0.15,-0.33,0.67,-0.23
2.063,-0.03,0.24,0.16,-0.33,0.67,-0.23
2.064,-0.03,0.24,0.16,-0.32,0.62,-0.52
2.074,-0.03,0.24,0.16,-0.36,0.57,-0.75
2.075,-0.03,0.23,0.17,-0.36,0.57,-0.75
2.076,-0.04,0.23,0.16,-0.36,0.57,-0.75
2.076,-0.04,0.23,0.16,-0.44,0.49,-1.00
2.078,-0.05,0.23,0.16,-0.44,0.49,-1.00
2.079,-0.05,0.23,0.16,-0.55,0.35,-1.11
2.086,-0.07,0.23,0.16,-0.55,0.35,-1.11
2.088,-0.07,0.23,0.16,-0.79,0.22,-1.22
2.089,-0.08,0.23,0.16,-0.79,0.22,-1.22
2.09,-0.08,0.23,0.16,-1.06,-0.02,-1.23
2.093,-0.08,0.22,0.16,-1.06,-0.02,-1.23
2.094,-0.08,0.22,0.16,-1.21,-0.24,-1.29
2.1,-0.08,0.22,0.16,-1.21,-0.24,-1.29
2.101,-0.08,0.22,0.16,-1.34,-0.51,-1.34
2.103,-0.07,0.20,0.17,-1.34,-0.51,-1.34
2.104,-0.07,0.20,0.17,-1.40,-0.75,-1.32
2.109,-0.07,0.20,0.17,-1.43,-1.00,-1.41
2.11,-0.05,0.19,0.18,-1.43,-1.00,-1.41
2.116,-0.05,0.19,0.18,-1.50,-1.26,-1.46
2.118,-0.03,0.17,0.18,-1.50,-1.26,-1.46
2.12,-0.01,0.17,0.17,-1.50,-1.26,-1.46
2.12,-0.01,0.17,0.17,-1.48,-1.55,-1.60
2.124,0.01,0.16,0.16,-1.48,-1.55,-1.60
2.125,0.01,0.16,0.16,-1.32,-1.76,-1.63
2.129,0.01,0.16,0.16,-1.44,-1.97,-1.73
2.13,0.03,0.15,0.14,-1.44,-1.97,-1.73
2.135,0.03,0.15,0.14,-1.70,-2.14,-1.80
2.136,0.05,0.13,0.12,-1.70,-2.14,-1.80
2.139,0.06,0.11,0.10,-1.70,-2.14,-1.80
2.14,0.06,0.11,0.10,-1.58,-2.14,-1.74
2.144,0.08,0.06,0.08,-1.58,-2.14,-1.74
2.145,0.08,0.06,0.08,-1.15,-1.94,-1.69
2.155,0.08,0.06,0.08,-0.83,-1.73,-1.78
2.156,0.09,0.01,0.06,-0.83,-1.73,-1.78
2.157,0.10,-0.02,0.05,-0.83,-1.73,-1.78
2.158,0.10,-0.02,0.05,-0.59,-1.53,-1.81
2.161,0.11,-0.04,0.03,-0.59,-1.53,-1.81
2.162,0.11,-0.04,0.03,-0.31,-1.30,-1.79
2.169,0.11,-0.04,0.03,0.05,-1.06,-1.75
2.171,0.12,-0.02,0.02,0.05,-1.06,-1.75
2.172,0.12,-0.02,0.02,0.33,-0.87,-1.59
2.173,0.13,0.01,0.01,0.33,-0.87,-1.59
2.174,0.14,0.05,0.01,0.33,-0.87,-1.59
2.175,0.14,0.05,0.01,0.40,-0.68,-1.41
2.179,0.15,0.11,0.01,0.40,-0.68,-1.41
2.18,0.15,0.11,0.01,0.38,-0.54,-1.25
2.184,0.15,0.16,0.02,0.38,-0.54,-1.25
2.185,0.15,0.16,0.02,0.41,-0.40,-1.05
2.189,0.15,0.16,0.02,0.40,-0.25,-0.88
2.19,0.15,0.20,0.03,0.40,-0.25,-0.88
2.194,0.14,0.22,0.04,0.40,-0.25,-0.88
2.195,0.14,0.22,0.04,0.41,-0.05,-0.77
2.2,0.14,0.22,0.04,0.37,0.04,-0.67
2.201,0.13,0.21,0.05,0.37,0.04,-0.67
2.204,0.13,0.21,0.05,0.32,0.10,-0.60
2.205,0.11,0.19,0.06,0.32,0.10,-0.60
2.21,0.11,0.19,0.06,0.31,0.16,-0.49
2.21,0.08,0.17,0.08,0.31,0.16,-0.49
2.216,0.07,0.16,0.10,0.31,0.16,-0.49
2.218,0.07,0.16,0.10,0.26,0.20,-0.41
2.22,0.05,0.15,0.13,0.26,0.20,-0.41
2.221,0.05,0.15,0.13,0.33,0.25,-0.31
2.224,0.04,0.14,0.14,0.33,0.25,-0.31
2.225,0.04,0.14,0.14,0.53,0.31,-0.24
2.23,0.04,0.14,0.14,0.73,0.38,-0.17
2.231,0.02,0.13,0.15,0.73,0.38,-0.17
2.235,0.00,0.14,0.16,0.73,0.38,-0.17
2.237,0.00,0.14,0.16,0.82,0.45,-0.11
2.239,-0.02,0.16,0.17,0.82,0.45,-0.11
2.24,-0.02,0.16,0.17,0.85,0.54,-0.10
2.245,-0.05,0.18,0.17,0.85,0.54,-0.10
2.245,-0.05,0.18,0.17,0.82,0.63,-0.10
2.262,-0.05,0.18,0.17,0.75,0.67,-0.05
2.263,-0.09,0.20,0.17,0.75,0.67,-0.05
2.264,-0.12,0.20,0.18,0.75,0.67,-0.05
2.266,-0.12,0.20,0.18,0.67,0.75,0.02
2.267,-0.15,0.19,0.18,0.67,0.75,0.02
2.268,-0.15,0.19,0.18,0.47,0.80,-0.06
2.27,-0.15,0.19,0.18,0.21,0.78,-0.11
2.271,-0.18,0.19,0.19,0.21,0.78,-0.11
2.272,-0.18,0.19,0.19,0.03,0.72,-0.10
2.272,-0.21,0.19,0.20,0.03,0.72,-0.10
2.275,-0.23,0.19,0.22,0.03,0.72,-0.10
2.277,-0.23,0.19,0.22,-0.06,0.58,-0.07
2.28,-0.25,0.19,0.22,-0.06,0.58,-0.07
2.28,-0.25,0.19,0.22,-0.33,0.45,-0.08
2.285,-0.25,0.19,0.22,-0.49,0.25,-0.14
2.286,-0.27,0.19,0.22,-0.49,0.25,-0.14
2.29,-0.27,0.19,0.22,-0.64,0.11,-0.16
2.291,-0.29,0.18,0.22,-0.64,0.11,-0.16
2.295,-0.29,0.18,0.22,-0.70,-0.01,-0.10
2.296,-0.31,0.16,0.22,-0.70,-0.01,-0.10
2.305,-0.31,0.16,0.22,-0.78,-0.15,0.03
2.306,-0.32,0.13,0.22,-0.78,-0.15,0.03
2.307,-0.33,0.09,0.21,-0.78,-0.15,0.03
2.308,-0.33,0.09,0.21,-0.86,-0.24,0.09
2.31,-0.33,0.09,0.21,-0.96,-0.33,0.13
2.311,-0.33,0.07,0.21,-0.96,-0.33,0.13
2.317,-0.33,0.05,0.21,-0.96,-0.33,0.13
2.319,-0.33,0.05,0.21,-0.97,-0.38,0.09
2.32,-0.33,0.03,0.21,-0.97,-0.38,0.09
2.321,-0.33,0.03,0.21,-0.94,-0.40,-0.00
2.325,-0.33,0.01,0.21,-0.94,-0.40,-0.00
2.326,-0.33,0.01,0.21,-0.92,-0.37,-0.04
2.332,-0.34,-0.01,0.21,-0.92,-0.37,-0.04
2.333,-0.34,-0.01,0.21,-0.91,-0.32,-0.08
2.336,-0.35,-0.03,0.21,-0.91,-0.32,-0.08
2.337,-0.35,-0.03,0.21,-0.93,-0.30,-0.09
2.34,-0.36,-0.04,0.21,-0.93,-0.30,-0.09
2.341,-0.36,-0.04,0.21,-0.95,-0.26,-0.15
2.345,-0.37,-0.06,0.21,-0.95,-0.26,-0.15
2.346,-0.37,-0.06,0.21,-0.87,-0.16,-0.22
2.351,-0.37,-0.06,0.21,-0.80,-0.16,-0.19
2.353,-0.38,-0.07,0.21,-0.80,-0.16,-0.19
2.356,-0.39,-0.09,0.20,-0.80,-0.16,-0.19
2.356,-0.39,-0.09,0.20,-0.74,-0.18,-0.21
2.361,-0.39,-0.12,0.19,-0.74,-0.18,-0.21
2.361,-0.39,-0.12,0.19,-0.64,-0.20,-0.24
2.366,-0.39,-0.12,0.19,-0.59,-0.16,-0.35
2.368,-0.40,-0.13,0.18,-0.59,-0.16,-0.35
2.371,-0.40,-0.13,0.18,-0.66,-0.16,-0.44
2.372,-0.41,-0.15,0.17,-0.66,-0.16,-0.44
2.375,-0.41,-0.15,0.15,-0.66,-0.16,-0.44
2.376,-0.41,-0.15,0.15,-0.68,-0.20,-0.40
2.383,-0.42,-0.14,0.15,-0.68,-0.20,-0.40
2.385,-0.42,-0.14,0.15,-0.63,-0.22,-0.30
2.386,-0.42,-0.13,0.14,-0.63,-0.22,-0.30
2.387,-0.42,-0.13,0.14,-0.48,-0.28,-0.27
2.391,-0.42,-0.12,0.13,-0.48,-0.28,-0.27
2.392,-0.42,-0.12,0.13,-0.50,-0.27,-0.26
2.396,-0.42,-0.10,0.13,-0.50,-0.27,-0.26
2.397,-0.42,-0.10,0.13,-0.47,-0.27,-0.25
2.401,-0.42,-0.08,0.12,-0.47,-0.27,-0.25
2.403,-0.42,-0.08,0.12,-0.39,-0.27,-0.20
2.406,-0.43,-0.07,0.10,-0.39,-0.27,-0.20
2.407,-0.43,-0.07,0.10,-0.40,-0.27,-0.07
2.411,-0.43,-0.07,0.10,-0.53,-0.35,0.09
2.412,-0.43,-0.07,0.08,-0.53,-0.35,0.09
2.422,-0.43,-0.07,0.08,-0.65,-0.39,0.26
2.424,-0.43,-0.08,0.08,-0.65,-0.39,0.26
2.425,-0.43,-0.09,0.08,-0.65,-0.39,0.26
2.426,-0.43,-0.09,0.08,-0.71,-0.42,0.34
2.427,-0.43,-0.10,0.08,-0.71,-0.42,0.34
2.428,-0.43,-0.10,0.08,-0.75,-0.47,0.29
2.436,-0.43,-0.10,0.08,-0.76,-0.55,0.32
2.438,-0.42,-0.11,0.08,-0.76,-0.55,0.32
2.439,-0.41,-0.11,0.08,-0.76,-0.55,0.32
2.439,-0.41,-0.11,0.08,-0.66,-0.61,0.43
2.441,-0.40,-0.10,0.07,-0.66,-0.61,0.43
2.442,-0.40,-0.10,0.07,-0.61,-0.61,0.46
2.446,-0.39,-0.09,0.06,-0.61,-0.61,0.46
2.447,-0.39,-0.09,0.06,-0.59,-0.57,0.41
2.451,-0.37,-0.07,0.04,-0.59,-0.57,0.41
2.453,-0.37,-0.07,0.04,-0.54,-0.46,0.39
2.457,-0.37,-0.07,0.02,-0.54,-0.46,0.39
2.457,-0.37,-0.07,0.02,-0.52,-0.40,0.42
2.461,-0.36,-0.07,0.00,-0.52,-0.40,0.42
2.463,-0.36,-0.07,0.00,-0.46,-0.37,0.49
2.467,-0.35,-0.08,-0.02,-0.46,-0.37,0.49
2.469,-0.35,-0.08,-0.02,-0.44,-0.26,0.53
2.472,-0.35,-0.08,-0.04,-0.44,-0.26,0.53
2.473,-0.35,-0.08,-0.04,-0.46,-0.13,0.58
2.477,-0.35,-0.08,-0.06,-0.46,-0.13,0.58
2.478,-0.35,-0.08,-0.06,-0.48,-0.02,0.66
2.484,-0.36,-0.09,-0.07,-0.48,-0.02,0.66
2.486,-0.36,-0.09,-0.07,-0.46,0.01,0.71
2.488,-0.36,-0.09,-0.07,-0.55,-0.02,0.72
2.489,-0.36,-0.10,-0.09,-0.55,-0.02,0.72
2.492,-0.36,-0.10,-0.09,-0.57,-0.05,0.74
2.493,-0.37,-0.10,-0.09,-0.57,-0.05,0.74
2.5,-0.37,-0.10,-0.09,-0.47,-0.16,0.85
2.503,-0.37,-0.10,-0.10,-0.47,-0.16,0.85
2.522,-0.37,-0.13,-0.10,-0.47,-0.16,0.85
2.527,-0.37,-0.13,-0.10,-0.48,-0.28,0.88
2.529,-0.36,-0.15,-0.10,-0.48,-0.28,0.88
2.531,-0.36,-0.15,-0.10,-0.48,-0.39,0.83
2.533,-0.36,-0.15,-0.10,-0.34,-0.49,0.74
2.535,-0.34,-0.18,-0.09,-0.34,-0.49,0.74
2.537,-0.34,-0.18,-0.09,-0.19,-0.52,0.54
2.539,-0.33,-0.22,-0.09,-0.19,-0.52,0.54
2.541,-0.33,-0.22,-0.09,-0.04,-0.53,0.30
2.541,-0.33,-0.25,-0.08,-0.04,-0.53,0.30
2.542,-0.33,-0.26,-0.09,-0.04,-0.53,0.30
2.543,-0.33,-0.26,-0.09,0.16,-0.52,0.02
2.544,-0.33,-0.26,-0.09,0.31,-0.46,-0.07
2.544,-0.33,-0.24,-0.09,0.31,-0.46,-0.07
2.545,-0.33,-0.21,-0.09,0.31,-0.46,-0.07
2.545,-0.33,-0.21,-0.09,0.52,-0.43,-0.04
2.546,-0.32,-0.18,-0.10,0.52,-0.43,-0.04
2.547,-0.32,-0.18,-0.10,0.78,-0.45,0.06
2.548,-0.31,-0.15,-0.10,0.78,-0.45,0.06
2.548,-0.31,-0.15,-0.10,0.85,-0.43,0.12
2.552,-0.31,-0.15,-0.10,0.93,-0.37,0.12
2.553,-0.30,-0.12,-0.10,0.93,-0.37,0.12
2.557,-0.30,-0.08,-0.09,0.93,-0.37,0.12
2.558,-0.30,-0.08,-0.09,0.95,-0.32,0.07
2.562,-0.30,-0.05,-0.08,0.95,-0.32,0.07
2.563,-0.30,-0.05,-0.08,0.95,-0.25,0.10
2.572,-0.31,-0.01,-0.06,0.95,-0.25,0.10
2.574,-0.31,-0.01,-0.06,0.98,-0.23,0.18
2.575,-0.31,-0.01,-0.06,0.92,-0.20,0.26
2.576,-0.33,0.02,-0.04,0.92,-0.20,0.26
2.578,-0.33,0.02,-0.04,0.90,-0.19,0.39
2.579,-0.34,0.07,-0.02,0.90,-0.19,0.39
2.584,-0.35,0.11,-0.01,0.90,-0.19,0.39
2.586,-0.35,0.11,-0.01,0.93,-0.19,0.57
2.587,-0.36,0.15,-0.01,0.93,-0.19,0.57
2.588,-0.36,0.15,-0.01,0.91,-0.20,0.73
2.594,-0.36,0.15,-0.01,0.84,-0.20,0.92
2.595,-0.38,0.19,-0.02,0.84,-0.20,0.92
2.599,-0.39,0.23,-0.03,0.84,-0.20,0.92
2.601,-0.39,0.23,-0.03,0.86,-0.21,1.16
2.604,-0.39,0.23,-0.03,0.79,-0.20,1.37
2.605,-0.41,0.26,-0.05,0.79,-0.20,1.37
2.607,-0.41,0.26,-0.05,0.64,-0.17,1.51
2.608,-0.43,0.27,-0.07,0.64,-0.17,1.51
2.612,-0.43,0.27,-0.07,0.51,-0.17,1.65
2.613,-0.46,0.27,-0.09,0.51,-0.17,1.65
2.618,-0.48,0.24,-0.09,0.51,-0.17,1.65
2.62,-0.48,0.24,-0.09,0.36,-0.22,1.76
2.623,-0.50,0.21,-0.09,0.36,-0.22,1.76
2.623,-0.50,0.21,-0.09,0.32,-0.29,1.95
2.628,-0.52,0.16,-0.08,0.32,-0.29,1.95
2.628,-0.52,0.16,-0.08,0.44,-0.34,1.99
2.633,-0.53,0.09,-0.06,0.44,-0.34,1.99
2.635,-0.53,0.09,-0.06,0.60,-0.42,1.99
2.638,-0.53,0.09,-0.06,0.85,-0.52,1.91
2.639,-0.54,0.01,-0.04,0.85,-0.52,1.91
2.643,-0.54,0.01,-0.04,1.24,-0.53,1.63
2.643,-0.54,-0.10,-0.01,1.24,-0.53,1.63
2.649,-0.54,-0.10,-0.01,1.68,-0.61,1.26
2.651,-0.54,-0.20,0.03,1.68,-0.61,1.26
2.653,-0.54,-0.20,0.03,2.09,-0.70,0.88
2.655,-0.53,-0.30,0.06,2.09,-0.70,0.88
2.658,-0.51,-0.37,0.10,2.09,-0.70,0.88
2.659,-0.51,-0.37,0.10,2.52,-0.78,0.57
2.663,-0.51,-0.37,0.10,2.92,-0.80,0.40
2.664,-0.48,-0.38,0.13,2.92,-0.80,0.40
2.668,-0.48,-0.38,0.13,3.23,-0.82,0.34
2.67,-0.44,-0.32,0.15,3.23,-0.82,0.34
2.673,-0.44,-0.32,0.15,3.34,-0.91,0.23
2.673,-0.38,-0.19,0.17,3.34,-0.91,0.23
2.678,-0.38,-0.19,0.17,3.24,-0.98,0.20
2.679,-0.33,0.00,0.19,3.24,-0.98,0.20
2.684,-0.29,0.20,0.20,3.24,-0.98,0.20
2.685,-0.29,0.20,0.20,3.00,-1.11,0.18
2.688,-0.29,0.20,0.20,2.61,-1.22,0.23
2.689,-0.26,0.37,0.20,2.61,-1.22,0.23
2.693,-0.26,0.37,0.20,2.15,-1.32,0.42
2.694,-0.24,0.47,0.20,2.15,-1.32,0.42
2.706,-0.24,0.47,0.20,1.69,-1.43,0.71
2.708,-0.21,0.52,0.18,1.69,-1.43,0.71
2.709,-0.17,0.53,0.15,1.69,-1.43,0.71
2.71,-0.17,0.53,0.15,1.20,-1.49,0.91
2.711,-0.17,0.53,0.15,0.90,-1.50,1.17
2.712,-0.12,0.51,0.11,0.90,-1.50,1.17
2.72,-0.12,0.51,0.11,0.66,-1.48,1.09
2.722,-0.08,0.45,0.08,0.66,-1.48,1.09
2.723,-0.08,0.45,0.08,0.41,-1.33,0.69
2.724,-0.03,0.39,0.04,0.41,-1.33,0.69
2.725,-0.02,0.34,0.00,0.41,-1.33,0.69
2.726,-0.02,0.34,0.00,0.28,-1.19,0.13
2.729,-0.02,0.34,0.00,0.23,-1.04,-0.34
2.73,-0.02,0.30,-0.03,0.23,-1.04,-0.34
2.734,-0.02,0.30,-0.03,0.22,-0.89,-0.62
2.736,-0.05,0.28,-0.05,0.22,-0.89,-0.62
2.74,-0.05,0.28,-0.05,0.22,-0.67,-0.75
2.741,-0.09,0.29,-0.08,0.22,-0.67,-0.75
2.743,-0.09,0.29,-0.08,0.17,-0.44,-0.79
2.744,-0.13,0.31,-0.11,0.17,-0.44,-0.79
2.75,-0.15,0.34,-0.15,0.17,-0.44,-0.79
2.752,-0.15,0.34,-0.15,0.02,-0.23,-0.84
2.768,-0.15,0.34,-0.15,-0.21,-0.01,-0.95
2.771,-0.18,0.38,-0.18,-0.21,-0.01,-0.95
2.772,-0.20,0.40,-0.20,-0.21,-0.01,-0.95
2.773,-0.20,0.40,-0.20,-0.48,0.23,-1.18
2.774,-0.22,0.40,-0.22,-0.48,0.23,-1.18
2.775,-0.22,0.40,-0.22,-0.77,0.43,-1.50
2.776,-0.25,0.37,-0.22,-0.77,0.43,-1.50
2.776,-0.25,0.37,-0.22,-1.07,0.67,-1.75
2.777,-0.29,0.34,-0.22,-1.07,0.67,-1.75
2.778,-0.29,0.34,-0.22,-1.26,0.99,-2.04
2.779,-0.33,0.30,-0.22,-1.26,0.99,-2.04
2.78,-0.33,0.30,-0.22,-1.39,1.30,-2.27
2.784,-0.37,0.26,-0.21,-1.39,1.30,-2.27
2.786,-0.37,0.26,-0.21,-1.44,1.60,-2.48
2.789,-0.37,0.26,-0.21,-1.43,1.89,-2.65
2.79,-0.41,0.23,-0.21,-1.43,1.89,-2.65
2.794,-0.45,0.20,-0.21,-1.43,1.89,-2.65
2.795,-0.45,0.20,-0.21,-1.48,2.25,-2.83
2.799,-0.45,0.20,-0.21,-1.52,2.60,-2.94
2.801,-0.49,0.18,-0.22,-1.52,2.60,-2.94
2.804,-0.53,0.16,-0.21,-1.52,2.60,-2.94
2.805,-0.53,0.16,-0.21,-1.54,2.88,-2.94
2.809,-0.57,0.15,-0.20,-1.54,2.88,-2.94
2.81,-0.57,0.15,-0.20,-1.52,3.01,-2.84
2.821,-0.57,0.15,-0.20,-1.34,3.09,-2.65
2.823,-0.59,0.13,-0.18,-1.34,3.09,-2.65
2.825,-0.61,0.09,-0.16,-1.34,3.09,-2.65
2.826,-0.61,0.09,-0.16,-0.97,3.10,-2.47
2.827,-0.61,0.09,-0.16,-0.60,2.93,-2.24
2.828,-0.63,0.05,-0.14,-0.60,2.93,-2.24
2.829,-0.63,0.05,-0.14,-0.24,2.62,-2.04
2.83,-0.64,0.02,-0.11,-0.24,2.62,-2.04
2.834,-0.64,0.01,-0.09,-0.24,2.62,-2.04
2.836,-0.64,0.01,-0.09,0.13,2.21,-1.85
2.839,-0.64,0.01,-0.09,0.52,1.87,-1.69
2.841,-0.65,0.02,-0.07,0.52,1.87,-1.69
2.844,-0.65,0.02,-0.07,0.82,1.48,-1.56
2.845,-0.66,0.04,-0.06,0.82,1.48,-1.56
2.85,-0.66,0.04,-0.06,0.97,1.04,-1.43
2.851,-0.67,0.07,-0.06,0.97,1.04,-1.43
2.855,-0.68,0.11,-0.07,0.97,1.04,-1.43
2.856,-0.68,0.11,-0.07,0.97,0.63,-1.33
2.86,-0.69,0.13,-0.08,0.97,0.63,-1.33
2.861,-0.69,0.13,-0.08,0.90,0.22,-1.16
2.864,-0.69,0.13,-0.10,0.90,0.22,-1.16
2.865,-0.69,0.13,-0.10,0.90,-0.09,-0.98
2.869,-0.69,0.12,-0.11,0.90,-0.09,-0.98
2.871,-0.69,0.12,-0.11,0.87,-0.38,-0.83
2.875,-0.67,0.12,-0.14,0.87,-0.38,-0.83
2.876,-0.67,0.12,-0.14,0.77,-0.68,-0.74
2.88,-0.65,0.11,-0.15,0.77,-0.68,-0.74
2.881,-0.65,0.11,-0.15,0.69,-0.93,-0.68
2.885,-0.65,0.11,-0.15,0.38,-1.13,-0.71
2.887,-0.61,0.11,-0.17,0.38,-1.13,-0.71
2.889,-0.61,0.11,-0.17,0.04,-1.38,-0.58
2.89,-0.58,0.13,-0.18,0.04,-1.38,-0.58
2.895,-0.58,0.13,-0.18,-0.04,-1.59,-0.23
2.895,-0.54,0.14,-0.19,-0.04,-1.59,-0.23
2.9,-0.48,0.15,-0.20,-0.04,-1.59,-0.23
2.902,-0.48,0.15,-0.20,0.03,-1.80,0.06
2.904,-0.48,0.15,-0.20,0.30,-1.92,0.37
2.905,-0.42,0.13,-0.22,0.30,-1.92,0.37
2.91,-0.42,0.13,-0.22,0.46,-1.97,0.48
2.911,-0.35,0.11,-0.26,0.46,-1.97,0.48
2.916,-0.35,0.11,-0.26,0.35,-1.96,0.46
2.919,-0.29,0.10,-0.30,0.35,-1.96,0.46
2.92,-0.23,0.08,-0.34,0.35,-1.96,0.46
2.922,-0.23,0.08,-0.34,0.19,-1.76,0.35
2.925,-0.18,0.06,-0.38,0.19,-1.76,0.35
2.926,-0.18,0.06,-0.38,0.01,-1.57,0.22
2.93,-0.13,0.05,-0.41,0.01,-1.57,0.22
2.931,-0.13,0.05,-0.41,-0.29,-1.33,0.16
2.936,-0.08,0.05,-0.43,-0.29,-1.33,0.16
2.937,-0.08,0.05,-0.43,-0.56,-1.09,0.11
2.94,-0.08,0.05,-0.43,-0.78,-0.81,0.05
2.941,-0.02,0.06,-0.44,-0.78,-0.81,0.05
2.945,0.03,0.05,-0.45,-0.78,-0.81,0.05
2.946,0.03,0.05,-0.45,-1.07,-0.48,-0.00
2.955,0.07,0.05,-0.44,-1.07,-0.48,-0.00
2.957,0.07,0.05,-0.44,-1.38,-0.17,-0.01
2.958,0.07,0.05,-0.44,-1.70,0.13,-0.05
2.959,0.10,0.04,-0.42,-1.70,0.13,-0.05
2.961,0.12,0.03,-0.39,-1.70,0.13,-0.05
2.962,0.12,0.03,-0.39,-1.87,0.29,-0.16
2.969,0.12,0.03,-0.39,-1.95,0.50,-0.13
2.971,0.14,-0.00,-0.37,-1.95,0.50,-0.13
2.972,0.14,-0.00,-0.37,-2.01,0.66,-0.22
2.973,0.16,-0.04,-0.35,-2.01,0.66,-0.22
2.975,0.16,-0.04,-0.35,-1.95,0.81,-0.29
2.977,0.17,-0.07,-0.33,-1.95,0.81,-0.29
2.983,0.17,-0.07,-0.33,-1.84,1.01,-0.34
2.985,0.18,-0.11,-0.31,-1.84,1.01,-0.34
2.986,0.18,-0.11,-0.31,-1.76,1.12,-0.38
2.987,0.18,-0.16,-0.30,-1.76,1.12,-0.38
2.99,0.18,-0.16,-0.30,-1.66,1.22,-0.41
2.991,0.17,-0.21,-0.29,-1.66,1.22,-0.41
2.995,0.17,-0.21,-0.29,-1.50,1.31,-0.41
2.996,0.16,-0.24,-0.28,-1.50,1.31,-0.41
3.001,0.15,-0.27,-0.27,-1.50,1.31,-0.41
3.003,0.15,-0.27,-0.27,-1.36,1.43,-0.44
3.021,0.15,-0.27,-0.27,-1.17,1.50,-0.42
3.024,0.14,-0.28,-0.26,-1.17,1.50,-0.42
3.025,0.14,-0.28,-0.26,-1.06,1.59,-0.41
3.026,0.13,-0.29,-0.25,-1.06,1.59,-0.41
3.027,0.12,-0.29,-0.24,-1.06,1.59,-0.41
3.027,0.12,-0.29,-0.24,-0.93,1.60,-0.41
3.028,0.10,-0.28,-0.22,-0.93,1.60,-0.41
3.029,0.10,-0.28,-0.22,-0.96,1.67,-0.38
3.03,0.08,-0.26,-0.19,-0.96,1.67,-0.38
3.031,0.08,-0.26,-0.19,-0.91,1.66,-0.39
3.032,0.06,-0.25,-0.17,-0.91,1.66,-0.39
3.034,0.06,-0.25,-0.17,-0.78,1.62,-0.32
3.04,0.04,-0.24,-0.14,-0.78,1.62,-0.32
3.042,0.04,-0.24,-0.14,-0.75,1.57,-0.28
3.043,0.04,-0.24,-0.14,-0.68,1.49,-0.22
3.044,0.02,-0.23,-0.11,-0.68,1.49,-0.22
3.045,0.00,-0.22,-0.09,-0.68,1.49,-0.22
3.047,0.00,-0.22,-0.09,-0.57,1.40,-0.19
3.05,-0.02,-0.20,-0.08,-0.57,1.40,-0.19
3.052,-0.02,-0.20,-0.08,-0.47,1.29,-0.17
3.055,-0.02,-0.20,-0.08,-0.42,1.18,-0.18
3.056,-0.03,-0.17,-0.07,-0.42,1.18,-0.18
3.06,-0.04,-0.14,-0.06,-0.42,1.18,-0.18
3.061,-0.04,-0.14,-0.06,-0.39,1.12,-0.23
3.071,-0.04,-0.14,-0.06,-0.44,1.09,-0.25
3.073,-0.05,-0.12,-0.06,-0.44,1.09,-0.25
3.074,-0.07,-0.10,-0.05,-0.44,1.09,-0.25
3.075,-0.07,-0.10,-0.05,-0.46,1.03,-0.16
3.076,-0.07,-0.10,-0.05,-0.46,1.03,-0.16
3.077,-0.07,-0.10,-0.05,-0.49,0.99,-0.05
3.081,-0.08,-0.09,-0.05,-0.49,0.99,-0.05
3.083,-0.08,-0.09,-0.05,-0.53,0.96,0.11
3.086,-0.09,-0.09,-0.05,-0.53,0.96,0.11
3.087,-0.09,-0.09,-0.05,-0.60,0.93,0.31
3.091,-0.09,-0.09,-0.05,-0.74,0.92,0.44
3.092,-0.09,-0.10,-0.04,-0.74,0.92,0.44
3.096,-0.09,-0.10,-0.04,-0.85,0.90,0.53
3.097,-0.09,-0.11,-0.02,-0.85,0.90,0.53
3.101,-0.08,-0.12,-0.01,-0.85,0.90,0.53
3.102,-0.08,-0.12,-0.01,-1.03,0.82,0.62
3.106,-0.08,-0.13,0.01,-1.03,0.82,0.62
3.107,-0.08,-0.13,0.01,-1.04,0.57,0.70
3.111,-0.08,-0.13,0.01,-0.88,0.34,0.85
3.112,-0.07,-0.15,0.04,-0.88,0.34,0.85
3.116,-0.07,-0.15,0.04,-0.78,0.12,0.90
3.118,-0.05,-0.15,0.07,-0.78,0.12,0.90
3.121,-0.03,-0.15,0.09,-0.78,0.12,0.90
3.122,-0.03,-0.15,0.09,-0.65,-0.04,1.05
3.126,-0.03,-0.15,0.09,-0.56,-0.16,1.04
3.127,0.01,-0.15,0.10,-0.56,-0.16,1.04
3.132,0.01,-0.15,0.10,-0.62,-0.25,1.03
3.134,0.05,-0.14,0.11,-0.62,-0.25,1.03
3.136,0.08,-0.12,0.13,-0.62,-0.25,1.03
3.137,0.08,-0.12,0.13,-0.60,-0.35,1.03
3.141,0.12,-0.12,0.15,-0.60,-0.35,1.03
3.142,0.12,-0.12,0.15,-0.50,-0.37,1.06
3.147,0.12,-0.12,0.15,-0.22,-0.39,1.02
3.147,0.15,-0.12,0.16,-0.22,-0.39,1.02
3.153,0.15,-0.12,0.16,0.00,-0.34,0.98
3.154,0.18,-0.13,0.17,0.00,-0.34,0.98
3.156,0.20,-0.15,0.16,0.00,-0.34,0.98
3.157,0.20,-0.15,0.16,0.22,-0.32,0.88
3.161,0.22,-0.16,0.15,0.22,-0.32,0.88
3.162,0.22,-0.16,0.15,0.39,-0.14,0.70
3.167,0.23,-0.16,0.14,0.39,-0.14,0.70
3.169,0.23,-0.16,0.14,0.44,0.10,0.43
3.171,0.23,-0.16,0.14,0.53,0.36,0.11
3.172,0.24,-0.16,0.12,0.53,0.36,0.11
3.177,0.24,-0.15,0.11,0.53,0.36,0.11
3.177,0.24,-0.15,0.11,0.67,0.60,-0.07
3.182,0.23,-0.14,0.10,0.67,0.60,-0.07
3.184,0.23,-0.14,0.10,0.82,0.89,-0.21
3.187,0.23,-0.14,0.10,0.85,1.16,-0.29
3.188,0.22,-0.12,0.08,0.85,1.16,-0.29
3.191,0.22,-0.12,0.08,0.89,1.32,-0.26
3.192,0.21,-0.10,0.08,0.89,1.32,-0.26
3.199,0.21,-0.10,0.08,0.91,1.30,-0.08
3.201,0.21,-0.09,0.08,0.91,1.30,-0.08
3.203,0.21,-0.09,0.08,0.99,1.20,0.12
3.203,0.21,-0.06,0.08,0.99,1.20,0.12
3.207,0.21,-0.06,0.08,1.10,1.07,0.39
3.208,0.22,-0.04,0.08,1.10,1.07,0.39
3.212,0.24,-0.00,0.08,1.10,1.07,0.39
3.213,0.24,-0.00,0.08,1.18,0.96,0.58
3.218,0.24,-0.00,0.08,1.30,0.87,0.80
3.22,0.25,0.03,0.08,1.30,0.87,0.80
3.222,0.26,0.06,0.08,1.30,0.87,0.80
3.222,0.26,0.06,0.08,1.38,0.75,0.99
3.227,0.26,0.06,0.08,1.43,0.69,1.15
3.228,0.27,0.08,0.07,1.43,0.69,1.15
3.24,0.27,0.08,0.07,1.55,0.71,1.28
3.241,0.28,0.09,0.05,1.55,0.71,1.28
3.242,0.28,0.09,0.05,1.66,0.73,1.31
3.243,0.28,0.08,0.04,1.66,0.73,1.31
3.244,0.28,0.08,0.04,1.84,0.82,1.24
3.245,0.27,0.05,0.02,1.84,0.82,1.24
3.258,0.27,0.05,0.02,2.15,0.88,1.07
3.26,0.26,0.00,-0.01,2.15,0.88,1.07
3.261,0.24,-0.07,-0.04,2.15,0.88,1.07
3.262,0.24,-0.07,-0.04,2.42,0.83,0.85
3.279,0.24,-0.07,-0.04,2.74,0.74,0.59
3.283,0.22,-0.16,-0.08,2.74,0.74,0.59
3.284,0.22,-0.16,-0.08,3.00,0.68,0.37
3.285,0.21,-0.24,-0.12,3.00,0.68,0.37
3.286,0.21,-0.24,-0.12,3.25,0.59,0.34
3.287,0.21,-0.30,-0.16,3.25,0.59,0.34
3.288,0.21,-0.30,-0.19,3.25,0.59,0.34
3.289,0.21,-0.30,-0.19,3.34,0.50,0.39
3.29,0.21,-0.30,-0.19,3.16,0.49,0.42
3.29,0.23,-0.21,-0.22,3.16,0.49,0.42
3.291,0.25,-0.03,-0.22,3.16,0.49,0.42
3.292,0.25,-0.03,-0.22,2.80,0.47,0.40
3.293,0.25,-0.03,-0.22,2.31,0.60,0.38
3.294,0.24,0.19,-0.21,2.31,0.60,0.38
3.295,0.24,0.19,-0.21,1.69,0.75,0.52
3.295,0.22,0.39,-0.18,1.69,0.75,0.52
3.299,0.22,0.39,-0.18,0.96,1.02,0.78
3.301,0.20,0.53,-0.14,0.96,1.02,0.78
3.303,0.20,0.53,-0.14,0.26,1.25,0.86
3.304,0.16,0.59,-0.09,0.26,1.25,0.86
3.308,0.16,0.59,-0.09,-0.33,1.33,0.81
3.309,0.13,0.58,-0.04,-0.33,1.33,0.81
3.313,0.13,0.58,-0.04,-0.65,1.40,0.63
3.313,0.10,0.51,0.01,-0.65,1.40,0.63
3.319,0.10,0.51,0.01,-0.69,1.47,0.49
3.32,0.07,0.39,0.04,-0.69,1.47,0.49
3.322,0.07,0.39,0.04,-0.57,1.61,0.27
3.323,0.05,0.25,0.06,-0.57,1.61,0.27
3.327,0.05,0.25,0.06,-0.32,1.75,0.02
3.328,0.04,0.12,0.05,-0.32,1.75,0.02
3.338,0.04,0.12,0.05,-0.04,1.93,-0.30
3.339,0.04,0.02,0.04,-0.04,1.93,-0.30
3.34,0.03,-0.04,0.02,-0.04,1.93,-0.30
3.341,0.03,-0.04,0.02,0.20,2.04,-0.74
3.342,0.03,-0.04,0.02,0.43,2.11,-1.10
3.343,0.02,-0.05,-0.00,0.43,2.11,-1.10
3.35,0.02,-0.05,-0.00,0.60,2.02,-1.36
3.352,-0.00,-0.04,-0.03,0.60,2.02,-1.36
3.353,-0.04,-0.00,-0.05,0.60,2.02,-1.36
3.353,-0.04,-0.00,-0.05,0.55,1.92,-1.51
3.358,-0.07,0.04,-0.07,0.55,1.92,-1.51
3.359,-0.07,0.04,-0.07,0.39,1.72,-1.58
3.363,-0.07,0.04,-0.07,0.08,1.44,-1.56
3.364,-0.11,0.10,-0.07,0.08,1.44,-1.56
3.368,-0.11,0.10,-0.07,-0.34,0.97,-1.50
3.369,-0.13,0.15,-0.07,-0.34,0.97,-1.50
3.373,-0.15,0.20,-0.05,-0.34,0.97,-1.50
3.374,-0.15,0.20,-0.05,-0.80,0.41,-1.46
3.378,-0.14,0.25,-0.02,-0.80,0.41,-1.46
3.379,-0.14,0.25,-0.02,-1.27,-0.19,-1.48
3.383,-0.14,0.25,-0.02,-1.59,-0.77,-1.49
3.385,-0.14,0.29,0.00,-1.59,-0.77,-1.49
3.388,-0.14,0.29,0.00,-1.79,-1.32,-1.52
3.389,-0.13,0.32,0.03,-1.79,-1.32,-1.52
3.393,-0.13,0.32,0.03,-1.99,-1.84,-1.52
3.394,-0.11,0.32,0.05,-1.99,-1.84,-1.52
3.399,-0.11,0.32,0.05,-2.08,-2.32,-1.58
3.401,-0.10,0.31,0.06,-2.08,-2.32,-1.58
3.404,-0.10,0.31,0.06,-2.05,-2.83,-1.58
3.405,-0.07,0.28,0.07,-2.05,-2.83,-1.58
3.408,-0.07,0.28,0.07,-1.91,-3.24,-1.54
3.409,-0.04,0.23,0.06,-1.91,-3.24,-1.54
3.413,-0.04,0.23,0.06,-1.69,-3.50,-1.49
3.414,0.00,0.18,0.05,-1.69,-3.50,-1.49
3.419,0.00,0.18,0.05,-1.36,-3.56,-1.47
3.421,0.05,0.11,0.02,-1.36,-3.56,-1.47
3.423,0.10,0.06,-0.02,-1.36,-3.56,-1.47
3.424,0.10,0.06,-0.02,-0.98,-3.49,-1.45
3.428,0.14,0.03,-0.06,-0.98,-3.49,-1.45
3.429,0.14,0.03,-0.06,-0.66,-3.25,-1.51
3.434,0.17,0.03,-0.10,-0.66,-3.25,-1.51
3.436,0.17,0.03,-0.10,-0.30,-2.85,-1.51
3.438,0.19,0.05,-0.15,-0.30,-2.85,-1.51
3.439,0.19,0.05,-0.15,0.08,-2.33,-1.37
3.443,0.21,0.09,-0.20,0.08,-2.33,-1.37
3.444,0.21,0.09,-0.20,0.34,-1.85,-1.16
3.45,0.22,0.12,-0.24,0.34,-1.85,-1.16
3.452,0.22,0.12,-0.24,0.41,-1.38,-0.92
3.454,0.22,0.14,-0.27,0.41,-1.38,-0.92
3.455,0.22,0.14,-0.27,0.42,-0.84,-0.74
3.459,0.23,0.14,-0.28,0.42,-0.84,-0.74
3.46,0.23,0.14,-0.28,0.40,-0.24,-0.69
3.465,0.23,0.14,-0.28,0.37,0.31,-0.73
3.467,0.22,0.11,-0.28,0.37,0.31,-0.73
3.469,0.20,0.07,-0.27,0.37,0.31,-0.73
3.47,0.20,0.07,-0.27,0.23,0.66,-0.86
3.474,0.16,0.02,-0.24,0.23,0.66,-0.86
3.474,0.16,0.02,-0.24,0.10,0.90,-0.93
3.479,0.13,-0.02,-0.20,0.10,0.90,-0.93
3.48,0.13,-0.02,-0.20,0.11,1.16,-0.99
3.49,0.09,-0.05,-0.16,0.11,1.16,-0.99
3.491,0.09,-0.05,-0.16,0.31,1.39,-1.10
3.493,0.09,-0.05,-0.16,0.48,1.59,-1.12
3.495,0.04,-0.07,-0.12,0.48,1.59,-1.12
3.496,-0.01,-0.05,-0.08,0.48,1.59,-1.12
3.497,-0.01,-0.05,-0.08,0.56,1.63,-1.11
3.504,-0.06,-0.02,-0.03,0.56,1.63,-1.11
3.506,-0.06,-0.02,-0.03,0.66,1.58,-1.03
3.507,-0.06,-0.02,-0.03,0.78,1.47,-0.95
3.508,-0.10,0.02,0.02,0.78,1.47,-0.95
3.524,-0.10,0.02,0.02,0.91,1.29,-0.86
3.525,-0.13,0.07,0.07,0.91,1.29,-0.86
3.527,-0.13,0.07,0.07,0.97,1.08,-0.75
3.528,-0.16,0.13,0.13,0.97,1.08,-0.75
3.529,-0.16,0.13,0.13,1.09,0.85,-0.67
3.53,-0.18,0.19,0.17,1.09,0.85,-0.67
3.532,-0.21,0.25,0.20,1.09,0.85,-0.67
3.533,-0.21,0.25,0.20,1.11,0.57,-0.65
3.535,-0.21,0.25,0.20,0.93,0.27,-0.62
3.536,-0.24,0.30,0.22,0.93,0.27,-0.62
3.537,-0.27,0.35,0.22,0.93,0.27,-0.62
3.537,-0.27,0.35,0.22,0.64,0.03,-0.50
3.541,-0.30,0.38,0.21,0.64,0.03,-0.50
3.543,-0.30,0.38,0.21,0.33,-0.17,-0.35
3.546,-0.32,0.37,0.19,0.33,-0.17,-0.35
3.546,-0.32,0.37,0.19,0.01,-0.37,-0.11
3.55,-0.34,0.35,0.18,0.01,-0.37,-0.11
3.551,-0.34,0.35,0.18,-0.38,-0.46,0.08
3.555,-0.35,0.31,0.18,-0.38,-0.46,0.08
3.556,-0.35,0.31,0.18,-0.89,-0.54,0.20
3.559,-0.35,0.31,0.18,-1.26,-0.65,0.25
3.56,-0.36,0.27,0.18,-1.26,-0.65,0.25
3.565,-0.36,0.23,0.19,-1.26,-0.65,0.25
3.567,-0.36,0.23,0.19,-1.49,-0.77,0.25
3.569,-0.36,0.18,0.21,-1.49,-0.77,0.25
3.57,-0.36,0.18,0.21,-1.63,-0.83,0.26
3.574,-0.36,0.18,0.21,-1.81,-0.93,0.28
3.575,-0.36,0.14,0.21,-1.81,-0.93,0.28
3.579,-0.36,0.14,0.21,-1.88,-1.06,0.29
3.58,-0.35,0.10,0.22,-1.88,-1.06,0.29
3.584,-0.34,0.05,0.23,-1.88,-1.06,0.29
3.585,-0.34,0.05,0.23,-1.89,-1.17,0.32
3.589,-0.34,0.05,0.23,-1.89,-1.18,0.37
3.59,-0.33,-0.01,0.24,-1.89,-1.18,0.37
3.594,-0.33,-0.01,0.24,-1.82,-1.26,0.35
3.595,-0.31,-0.07,0.24,-1.82,-1.26,0.35
3.605,-0.31,-0.07,0.24,-1.74,-1.29,0.32
3.607,-0.29,-0.12,0.25,-1.74,-1.29,0.32
3.608,-0.29,-0.12,0.25,-1.61,-1.28,0.30
3.609,-0.28,-0.18,0.25,-1.61,-1.28,0.30
3.612,-0.28,-0.18,0.25,-1.47,-1.32,0.21
3.613,-0.27,-0.23,0.25,-1.47,-1.32,0.21
3.62,-0.25,-0.26,0.25,-1.47,-1.32,0.21
3.622,-0.25,-0.26,0.25,-1.26,-1.30,0.16
3.623,-0.25,-0.26,0.25,-1.05,-1.33,0.15
3.624,-0.24,-0.29,0.24,-1.05,-1.33,0.15
3.625,-0.22,-0.31,0.23,-1.05,-1.33,0.15
3.626,-0.22,-0.31,0.23,-0.85,-1.32,0.04
3.63,-0.22,-0.31,0.23,-0.65,-1.25,-0.14
3.631,-0.20,-0.31,0.22,-0.65,-1.25,-0.14
3.635,-0.20,-0.31,0.22,-0.53,-1.22,-0.20
3.637,-0.19,-0.30,0.21,-0.53,-1.22,-0.20
3.64,-0.19,-0.30,0.21,-0.38,-1.18,-0.16
3.641,-0.17,-0.29,0.19,-0.38,-1.18,-0.16
3.645,-0.17,-0.29,0.19,-0.32,-1.13,-0.09
3.646,-0.16,-0.28,0.17,-0.32,-1.13,-0.09
3.65,-0.15,-0.27,0.14,-0.32,-1.13,-0.09
3.652,-0.15,-0.27,0.14,-0.39,-1.11,-0.18
3.655,-0.15,-0.27,0.14,-0.46,-0.99,-0.25
3.656,-0.15,-0.26,0.12,-0.46,-0.99,-0.25
3.66,-0.15,-0.25,0.09,-0.46,-0.99,-0.25
3.661,-0.15,-0.25,0.09,-0.54,-0.93,-0.23
3.666,-0.15,-0.24,0.07,-0.54,-0.93,-0.23
3.668,-0.15,-0.24,0.07,-0.57,-0.95,-0.11
3.67,-0.15,-0.24,0.07,-0.71,-0.94,-0.02
3.671,-0.14,-0.24,0.06,-0.71,-0.94,-0.02
3.675,-0.14,-0.25,0.06,-0.71,-0.94,-0.02
3.676,-0.14,-0.25,0.06,-0.77,-0.92,0.11
3.68,-0.13,-0.27,0.06,-0.77,-0.92,0.11
3.681,-0.13,-0.27,0.06,-0.77,-0.85,0.14
3.686,-0.13,-0.27,0.06,-0.72,-0.83,0.00
3.687,-0.12,-0.28,0.06,-0.72,-0.83,0.00
3.69,-0.12,-0.28,0.06,-0.57,-0.87,-0.04
3.691,-0.12,-0.30,0.07,-0.57,-0.87,-0.04
3.695,-0.12,-0.30,0.07,-0.37,-0.87,-0.03
3.696,-0.12,-0.31,0.06,-0.37,-0.87,-0.03
3.7,-0.12,-0.31,0.06,-0.33,-0.88,0.01
3.703,-0.12,-0.31,0.05,-0.33,-0.88,0.01
3.705,-0.12,-0.31,0.05,-0.24,-0.85,0.15
3.706,-0.12,-0.30,0.04,-0.24,-0.85,0.15
3.71,-0.12,-0.30,0.04,-0.09,-0.75,0.33
3.711,-0.11,-0.28,0.03,-0.09,-0.75,0.33
3.716,-0.11,-0.28,0.03,0.08,-0.74,0.42
3.718,-0.11,-0.27,0.02,0.08,-0.74,0.42
3.721,-0.11,-0.27,0.02,0.23,-0.65,0.52
3.722,-0.10,-0.26,0.00,0.23,-0.65,0.52
3.725,-0.10,-0.25,-0.01,0.23,-0.65,0.52
3.726,-0.10,-0.25,-0.01,0.33,-0.52,0.51
3.73,-0.10,-0.25,-0.04,0.33,-0.52,0.51
3.731,-0.10,-0.25,-0.04,0.42,-0.33,0.48
3.737,-0.10,-0.25,-0.04,0.47,-0.15,0.43
3.738,-0.11,-0.23,-0.06,0.47,-0.15,0.43
3.74,-0.11,-0.23,-0.06,0.52,-0.02,0.47
3.741,-0.12,-0.20,-0.08,0.52,-0.02,0.47
3.746,-0.12,-0.20,-0.08,0.52,0.10,0.59
3.747,-0.13,-0.17,-0.10,0.52,0.10,0.59
3.757,-0.13,-0.17,-0.10,0.49,0.23,0.63
3.76,-0.13,-0.13,-0.11,0.49,0.23,0.63
3.761,-0.13,-0.13,-0.11,0.47,0.28,0.60
3.762,-0.14,-0.09,-0.13,0.47,0.28,0.60
3.782,-0.14,-0.06,-0.13,0.47,0.28,0.60
3.783,-0.14,-0.06,-0.13,0.37,0.26,0.53
3.784,-0.15,-0.05,-0.13,0.37,0.26,0.53
3.785,-0.15,-0.05,-0.13,0.25,0.03,0.51
3.785,-0.15,-0.05,-0.13,0.08,-0.21,0.49
3.786,-0.16,-0.04,-0.12,0.08,-0.21,0.49
3.787,-0.16,-0.04,-0.12,0.06,-0.51,0.63
3.788,-0.15,-0.03,-0.09,0.06,-0.51,0.63
3.789,-0.15,-0.03,-0.09,0.09,-0.80,0.74
3.79,-0.14,-0.03,-0.07,0.09,-0.80,0.74
3.791,-0.12,-0.03,-0.04,0.09,-0.80,0.74
3.792,-0.12,-0.03,-0.04,0.12,-1.04,0.73
3.793,-0.12,-0.03,-0.04,0.19,-1.16,0.70
3.793,-0.09,-0.02,-0.02,0.19,-1.16,0.70
3.797,-0.09,-0.02,-0.02,0.27,-1.13,0.66
3.798,-0.08,0.00,-0.01,0.27,-1.13,0.66
3.802,-0.08,0.00,-0.01,0.35,-1.07,0.62
3.803,-0.07,0.02,-0.00,0.35,-1.07,0.62
3.807,-0.09,0.04,-0.01,0.35,-1.07,0.62
3.808,-0.09,0.04,-0.01,0.42,-0.90,0.55
3.812,-0.09,0.04,-0.01,0.52,-0.72,0.65
3.813,-0.11,0.06,-0.01,0.52,-0.72,0.65
3.817,-0.11,0.06,-0.01,0.55,-0.51,0.79
3.819,-0.14,0.09,-0.02,0.55,-0.51,0.79
3.822,-0.14,0.09,-0.02,0.62,-0.26,1.00
3.824,-0.17,0.11,-0.05,0.62,-0.26,1.00
3.826,-0.17,0.11,-0.05,0.51,-0.03,1.09
3.827,-0.20,0.14,-0.07,0.51,-0.03,1.09
3.832,-0.20,0.14,-0.07,0.42,0.15,1.19
3.835,-0.22,0.16,-0.10,0.42,0.15,1.19
3.837,-0.22,0.16,-0.10,0.29,0.26,1.29
3.838,-0.25,0.19,-0.13,0.29,0.26,1.29
3.841,-0.28,0.21,-0.15,0.29,0.26,1.29
3.842,-0.28,0.21,-0.15,0.10,0.24,1.42
3.846,-0.31,0.24,-0.16,0.10,0.24,1.42
3.847,-0.31,0.24,-0.16,-0.05,0.10,1.62
3.851,-0.33,0.26,-0.16,-0.05,0.10,1.62
3.853,-0.33,0.26,-0.16,-0.18,-0.06,1.88
3.856,-0.33,0.26,-0.16,-0.24,-0.19,2.12
3.857,-0.34,0.26,-0.15,-0.24,-0.19,2.12
3.861,-0.34,0.26,-0.15,-0.08,-0.35,2.40
3.862,-0.33,0.22,-0.14,-0.08,-0.35,2.40
3.867,-0.33,0.22,-0.14,0.23,-0.45,2.60
3.868,-0.31,0.14,-0.12,0.23,-0.45,2.60
3.871,-0.28,0.01,-0.10,0.23,-0.45,2.60
3.872,-0.28,0.01,-0.10,0.66,-0.47,2.38
3.877,-0.25,-0.16,-0.06,0.66,-0.47,2.38
3.877,-0.25,-0.16,-0.06,1.08,-0.54,1.95
3.89,-0.25,-0.16,-0.06,1.44,-0.68,1.36
3.892,-0.22,-0.34,0.00,1.44,-0.68,1.36
3.892,-0.19,-0.48,0.08,1.44,-0.68,1.36
3.893,-0.19,-0.48,0.08,1.83,-1.01,0.76
3.894,-0.14,-0.56,0.17,1.83,-1.01,0.76
3.895,-0.14,-0.56,0.17,2.42,-1.33,0.38
3.905,-0.07,-0.52,0.26,2.42,-1.33,0.38
3.907,-0.07,-0.52,0.26,3.06,-1.60,0.20
3.908,-0.07,-0.52,0.26,3.54,-1.90,-0.01
3.909,0.02,-0.36,0.33,3.54,-1.90,-0.01
3.91,0.02,-0.36,0.33,3.79,-2.13,-0.37
3.91,0.10,-0.10,0.37,3.79,-2.13,-0.37
3.913,0.10,-0.10,0.37,3.91,-2.32,-0.64
3.914,0.16,0.20,0.37,3.91,-2.32,-0.64
3.917,0.16,0.20,0.37,3.59,-2.37,-0.74
3.918,0.19,0.45,0.33,3.59,-2.37,-0.74
3.922,0.19,0.59,0.27,3.59,-2.37,-0.74
3.923,0.19,0.59,0.27,2.85,-2.25,-0.60
3.927,0.18,0.63,0.21,2.85,-2.25,-0.60
3.928,0.18,0.63,0.21,2.09,-2.08,-0.15
3.933,0.18,0.63,0.21,1.44,-1.92,0.18
3.935,0.18,0.58,0.15,1.44,-1.92,0.18
3.937,0.18,0.58,0.15,0.90,-1.78,0.21
3.938,0.20,0.46,0.10,0.90,-1.78,0.21
3.942,0.21,0.35,0.06,0.90,-1.78,0.21
3.943,0.21,0.35,0.06,0.47,-1.66,-0.07
3.949,0.21,0.35,0.06,0.31,-1.57,-0.57
3.952,0.23,0.27,0.03,0.31,-1.57,-0.57
3.953,0.23,0.27,0.03,0.22,-1.42,-1.03
3.954,0.23,0.23,0.00,0.22,-1.42,-1.03
3.957,0.23,0.23,0.00,0.11,-1.21,-1.39
3.958,0.22,0.23,-0.03,0.11,-1.21,-1.39
3.962,0.22,0.23,-0.03,-0.03,-0.96,-1.62
3.964,0.20,0.25,-0.06,-0.03,-0.96,-1.62
3.968,0.20,0.25,-0.06,-0.21,-0.67,-1.76
3.97,0.18,0.27,-0.09,-0.21,-0.67,-1.76
3.972,0.18,0.27,-0.09,-0.44,-0.39,-1.81
3.973,0.16,0.28,-0.11,-0.44,-0.39,-1.81
3.977,0.16,0.28,-0.11,-0.68,-0.11,-1.82
3.978,0.13,0.28,-0.12,-0.68,-0.11,-1.82
3.982,0.13,0.28,-0.12,-0.88,0.16,-1.80
3.985,0.11,0.27,-0.14,-0.88,0.16,-1.80
3.987,0.09,0.25,-0.14,-0.88,0.16,-1.80
3.988,0.09,0.25,-0.14,-1.10,0.43,-1.82
3.993,0.07,0.22,-0.15,-1.10,0.43,-1.82
3.993,0.07,0.22,-0.15,-1.32,0.65,-1.84
3.999,0.07,0.22,-0.15,-1.43,0.85,-1.84
4.002,0.05,0.18,-0.15,-1.43,0.85,-1.84
4.003,0.05,0.18,-0.15,-1.40,1.13,-1.85
4.004,0.04,0.14,-0.16,-1.40,1.13,-1.85
4.008,0.04,0.14,-0.16,-1.41,1.35,-1.83
4.008,0.03,0.10,-0.16,-1.41,1.35,-1.83
4.026,0.03,0.10,-0.16,-1.38,1.54,-1.78
4.027,0.01,0.06,-0.17,-1.38,1.54,-1.78
4.031,-0.00,0.01,-0.17,-1.38,1.54,-1.78
4.032,-0.00,0.01,-0.17,-1.29,1.70,-1.70
4.034,-0.01,-0.04,-0.16,-1.29,1.70,-1.70
4.036,-0.01,-0.04,-0.16,-1.07,1.83,-1.54
4.038,-0.02,-0.10,-0.14,-1.07,1.83,-1.54
4.04,-0.02,-0.10,-0.14,-0.84,1.95,-1.40
4.041,-0.02,-0.14,-0.11,-0.84,1.95,-1.40
4.042,-0.02,-0.14,-0.11,-0.50,1.96,-1.30
4.043,-0.02,-0.15,-0.08,-0.50,1.96,-1.30
4.044,-0.02,-0.15,-0.08,-0.10,1.97,-1.31
4.045,-0.02,-0.15,-0.08,0.32,1.91,-1.41
4.046,-0.02,-0.14,-0.05,0.32,1.91,-1.41
4.048,-0.02,-0.14,-0.05,0.62,1.81,-1.46
4.05,-0.03,-0.11,-0.04,0.62,1.81,-1.46
4.053,-0.05,-0.07,-0.04,0.62,1.81,-1.46
4.053,-0.05,-0.07,-0.04,0.78,1.65,-1.47
4.058,-0.05,-0.07,-0.04,0.75,1.48,-1.46
4.058,-0.07,-0.02,-0.04,0.75,1.48,-1.46
4.063,-0.07,-0.02,-0.04,0.69,1.29,-1.36
4.064,-0.08,0.02,-0.04,0.69,1.29,-1.36
4.072,-0.10,0.04,-0.04,0.69,1.29,-1.36
4.074,-0.10,0.04,-0.04,0.60,1.14,-1.19
4.075,-0.11,0.04,-0.04,0.60,1.14,-1.19
4.075,-0.11,0.04,-0.04,0.42,0.94,-1.16
4.079,-0.11,0.04,-0.04,0.33,0.70,-1.12
4.08,-0.12,0.02,-0.04,0.33,0.70,-1.12
4.085,-0.12,-0.01,-0.05,0.33,0.70,-1.12
4.086,-0.12,-0.01,-0.05,0.30,0.44,-1.06
4.088,-0.12,-0.01,-0.05,0.23,0.20,-1.00
4.088,-0.12,-0.03,-0.06,0.23,0.20,-1.00
4.093,-0.12,-0.06,-0.07,0.23,0.20,-1.00
4.094,-0.12,-0.06,-0.07,0.19,-0.00,-0.98
4.099,-0.12,-0.06,-0.07,0.17,-0.21,-0.82
4.101,-0.11,-0.07,-0.08,0.17,-0.21,-0.82
4.104,-0.11,-0.07,-0.08,0.12,-0.39,-0.77
4.105,-0.09,-0.08,-0.10,0.12,-0.39,-0.77
4.108,-0.09,-0.08,-0.10,0.05,-0.69,-0.60
4.109,-0.06,-0.08,-0.11,0.05,-0.69,-0.60
4.113,-0.06,-0.08,-0.11,0.14,-0.98,-0.44
4.114,-0.03,-0.09,-0.12,0.14,-0.98,-0.44
4.118,-0.03,-0.09,-0.12,0.21,-1.14,-0.28
4.12,0.02,-0.10,-0.14,0.21,-1.14,-0.28
4.123,0.02,-0.10,-0.14,0.35,-1.29,-0.17
4.124,0.07,-0.10,-0.15,0.35,-1.29,-0.17
4.128,0.07,-0.10,-0.15,0.41,-1.40,-0.12
4.129,0.12,-0.10,-0.17,0.41,-1.40,-0.12
4.135,0.16,-0.09,-0.20,0.41,-1.40,-0.12
4.136,0.16,-0.09,-0.20,0.30,-1.45,-0.11
4.138,0.16,-0.09,-0.20,0.20,-1.47,-0.06
4.14,0.21,-0.08,-0.23,0.20,-1.47,-0.06
4.144,0.25,-0.08,-0.26,0.20,-1.47,-0.06
4.144,0.25,-0.08,-0.26,0.18,-1.36,-0.09
4.157,0.25,-0.08,-0.26,0.02,-1.15,-0.06
4.158,0.29,-0.08,-0.31,0.02,-1.15,-0.06
4.16,0.33,-0.09,-0.34,0.02,-1.15,-0.06
4.161,0.33,-0.09,-0.34,-0.23,-0.90,-0.06
4.162,0.33,-0.09,-0.34,-0.43,-0.57,-0.08
4.163,0.37,-0.09,-0.37,-0.43,-0.57,-0.08
4.164,0.37,-0.09,-0.37,-0.66,-0.15,-0.18
4.165,0.40,-0.11,-0.38,-0.66,-0.15,-0.18
4.172,0.40,-0.11,-0.38,-1.04,0.20,-0.28
4.174,0.42,-0.13,-0.39,-1.04,0.20,-0.28
4.175,0.42,-0.13,-0.39,-1.38,0.16,-0.35
4.176,0.44,-0.14,-0.37,-1.38,0.16,-0.35
4.179,0.44,-0.14,-0.37,-1.32,0.14,-0.26
4.18,0.45,-0.15,-0.35,-1.32,0.14,-0.26
4.183,0.45,-0.15,-0.35,-1.23,0.33,-0.24
4.185,0.46,-0.16,-0.32,-1.23,0.33,-0.24
4.189,0.46,-0.16,-0.32,-1.26,0.41,-0.29
4.19,0.46,-0.17,-0.29,-1.26,0.41,-0.29
4.194,0.46,-0.17,-0.29,-1.20,0.48,-0.40
4.195,0.46,-0.17,-0.27,-1.20,0.48,-0.40
4.199,0.46,-0.17,-0.27,-1.22,0.60,-0.41
4.202,0.46,-0.18,-0.26,-1.22,0.60,-0.41
4.204,0.46,-0.18,-0.25,-1.22,0.60,-0.41
4.205,0.46,-0.18,-0.25,-1.26,0.64,-0.38
4.209,0.46,-0.18,-0.24,-1.26,0.64,-0.38
4.21,0.46,-0.18,-0.24,-1.27,0.69,-0.35
4.216,0.46,-0.18,-0.24,-1.27,0.80,-0.29
4.219,0.45,-0.18,-0.23,-1.27,0.80,-0.29
4.221,0.45,-0.20,-0.22,-1.27,0.80,-0.29
4.221,0.45,-0.20,-0.22,-1.09,0.86,-0.31
4.224,0.45,-0.20,-0.22,-1.11,0.92,-0.28
4.225,0.44,-0.22,-0.21,-1.11,0.92,-0.28
4.229,0.44,-0.22,-0.21,-1.38,0.99,-0.27
4.23,0.43,-0.21,-0.20,-1.38,0.99,-0.27
4.234,0.43,-0.21,-0.20,-1.60,1.03,-0.25
4.237,0.42,-0.20,-0.18,-1.60,1.03,-0.25
4.239,0.42,-0.20,-0.18,-1.58,1.06,-0.13
4.24,0.41,-0.21,-0.15,-1.58,1.06,-0.13
4.244,0.41,-0.21,-0.15,-1.47,1.14,0.02
4.246,0.40,-0.24,-0.12,-1.47,1.14,0.02
4.251,0.40,-0.24,-0.12,-1.35,1.11,0.04
4.253,0.40,-0.28,-0.10,-1.35,1.11,0.04
4.255,0.40,-0.28,-0.10,-1.20,1.08,-0.05
4.256,0.40,-0.30,-0.07,-1.20,1.08,-0.05
4.26,0.40,-0.32,-0.05,-1.20,1.08,-0.05
4.261,0.40,-0.32,-0.05,-1.13,1.07,-0.13
4.282,0.40,-0.32,-0.05,-1.09,1.05,-0.20
4.285,0.39,-0.33,-0.03,-1.09,1.05,-0.20
4.287,0.39,-0.33,-0.03,-0.97,1.03,-0.30
4.288,0.38,-0.33,-0.01,-0.97,1.03,-0.30
4.289,0.37,-0.33,0.01,-0.97,1.03,-0.30
4.29,0.37,-0.33,0.01,-0.95,1.03,-0.31
4.292,0.37,-0.33,0.01,-0.94,1.03,-0.23
4.293,0.36,-0.32,0.03,-0.94,1.03,-0.23
4.294,0.36,-0.32,0.03,-0.95,1.00,-0.16
4.295,0.36,-0.32,0.05,-0.95,1.00,-0.16
4.296,0.35,-0.32,0.07,-0.95,1.00,-0.16
4.297,0.35,-0.32,0.07,-0.92,0.97,-0.11
4.297,0.35,-0.32,0.10,-0.92,0.97,-0.11
4.298,0.35,-0.32,0.10,-0.85,0.89,-0.05
4.3,0.35,-0.31,0.12,-0.85,0.89,-0.05
4.301,0.35,-0.31,0.12,-0.78,0.81,-0.08
4.306,0.35,-0.29,0.14,-0.78,0.81,-0.08
4.307,0.35,-0.29,0.14,-0.72,0.73,-0.15
4.31,0.35,-0.26,0.17,-0.72,0.73,-0.15
4.311,0.35,-0.26,0.17,-0.64,0.65,-0.17
4.322,0.35,-0.26,0.17,-0.57,0.54,-0.14
4.324,0.35,-0.24,0.19,-0.57,0.54,-0.14
4.325,0.35,-0.21,0.21,-0.57,0.54,-0.14
4.326,0.35,-0.21,0.21,-0.52,0.47,-0.01
4.326,0.35,-0.18,0.22,-0.52,0.47,-0.01
4.327,0.35,-0.18,0.22,-0.44,0.37,0.10
4.337,0.36,-0.15,0.24,-0.44,0.37,0.10
4.338,0.36,-0.15,0.24,-0.44,0.31,0.28
4.339,0.36,-0.12,0.26,-0.44,0.31,0.28
4.34,0.36,-0.12,0.26,-0.39,0.29,0.32
4.341,0.36,-0.09,0.27,-0.39,0.29,0.32
4.342,0.36,-0.09,0.27,-0.37,0.30,0.39
4.345,0.36,-0.09,0.27,-0.35,0.28,0.46
4.346,0.35,-0.07,0.28,-0.35,0.28,0.46
4.35,0.35,-0.07,0.28,-0.31,0.26,0.47
4.351,0.35,-0.07,0.30,-0.31,0.26,0.47
4.355,0.34,-0.07,0.31,-0.31,0.26,0.47
4.356,0.34,-0.07,0.31,-0.29,0.28,0.49
4.36,0.33,-0.07,0.32,-0.29,0.28,0.49
4.361,0.33,-0.07,0.32,-0.23,0.34,0.45
4.366,0.33,-0.07,0.32,-0.19,0.43,0.38
4.368,0.32,-0.06,0.34,-0.19,0.43,0.38
4.37,0.31,-0.05,0.34,-0.19,0.43,0.38
4.371,0.31,-0.05,0.34,-0.12,0.53,0.26
4.375,0.31,-0.05,0.34,-0.04,0.68,0.25
4.376,0.29,-0.04,0.35,-0.04,0.68,0.25
4.384,0.28,-0.04,0.35,-0.04,0.68,0.25
4.386,0.28,-0.04,0.35,0.24,1.07,0.15
4.387,0.28,-0.04,0.35,0.63,1.48,-0.11
4.388,0.25,-0.06,0.33,0.63,1.48,-0.11
4.39,0.21,-0.09,0.29,0.63,1.48,-0.11
4.391,0.21,-0.09,0.29,0.72,1.55,-0.40
4.395,0.15,-0.13,0.25,0.72,1.55,-0.40
4.396,0.15,-0.13,0.25,0.73,1.53,-0.44
4.401,0.11,-0.16,0.23,0.73,1.53,-0.44
4.403,0.11,-0.16,0.23,0.59,1.45,-0.16
4.405,0.11,-0.16,0.23,0.31,1.33,0.34
4.406,0.11,-0.17,0.22,0.31,1.33,0.34
4.411,0.16,-0.14,0.23,0.31,1.33,0.34
4.411,0.16,-0.14,0.23,0.11,1.06,0.93
4.426,0.23,-0.08,0.25,0.11,1.06,0.93
4.429,0.23,-0.08,0.25,0.10,0.69,1.24
4.431,0.31,-0.01,0.28,0.10,0.69,1.24
4.433,0.31,-0.01,0.28,0.33,0.31,1.34
4.436,0.31,-0.01,0.28,0.57,-0.05,1.40
4.437,0.36,0.06,0.30,0.57,-0.05,1.40
4.439,0.37,0.12,0.30,0.57,-0.05,1.40
4.44,0.37,0.12,0.30,0.71,-0.36,1.65
4.441,0.38,0.15,0.30,0.71,-0.36,1.65
4.442,0.38,0.15,0.30,0.83,-0.61,2.01
4.443,0.38,0.15,0.30,0.83,-0.81,2.44
4.444,0.39,0.16,0.29,0.83,-0.81,2.44
4.445,0.42,0.15,0.28,0.83,-0.81,2.44
4.446,0.42,0.15,0.28,0.86,-0.99,2.74
4.451,0.46,0.12,0.26,0.86,-0.99,2.74
4.453,0.46,0.12,0.26,0.92,-1.10,2.90
4.456,0.52,0.08,0.24,0.92,-1.10,2.90
4.457,0.52,0.08,0.24,1.05,-1.13,2.76
4.461,0.58,0.04,0.21,1.05,-1.13,2.76
4.462,0.58,0.04,0.21,1.22,-1.08,2.34
4.466,0.62,-0.01,0.17,1.22,-1.08,2.34
4.468,0.62,-0.01,0.17,1.55,-0.95,1.85
4.471,0.64,-0.09,0.12,1.55,-0.95,1.85
4.473,0.64,-0.09,0.12,1.98,-0.85,1.29
4.476,0.65,-0.18,0.07,1.98,-0.85,1.29
4.477,0.65,-0.18,0.07,2.52,-0.81,0.73
4.483,0.65,-0.28,0.01,2.52,-0.81,0.73
4.486,0.65,-0.28,0.01,3.00,-0.70,0.29
4.487,0.65,-0.28,0.01,3.45,-0.49,-0.11
4.488,0.64,-0.36,-0.05,3.45,-0.49,-0.11
4.491,0.65,-0.41,-0.12,3.45,-0.49,-0.11
4.492,0.65,-0.41,-0.12,3.91,-0.16,-0.42
4.496,0.65,-0.37,-0.19,3.91,-0.16,-0.42
4.497,0.65,-0.37,-0.19,4.15,0.22,-0.68
4.502,0.65,-0.37,-0.19,4.21,0.69,-0.90
4.504,0.65,-0.23,-0.27,4.21,0.69,-0.90
4.506,0.65,-0.23,-0.27,3.96,1.25,-1.06
4.507,0.63,-0.01,-0.33,3.96,1.25,-1.06
4.511,0.57,0.24,-0.39,3.96,1.25,-1.06
4.512,0.57,0.24,-0.39,3.47,1.82,-1.10
4.528,0.48,0.43,-0.42,3.47,1.82,-1.10
4.532,0.48,0.43,-0.42,2.53,2.29,-0.92
4.533,0.38,0.55,-0.41,2.53,2.29,-0.92
4.534,0.38,0.55,-0.41,1.35,2.66,-0.52
4.536,0.38,0.55,-0.41,0.26,2.83,-0.15
4.538,0.29,0.58,-0.37,0.26,2.83,-0.15
4.539,0.22,0.56,-0.30,0.26,2.83,-0.15
4.54,0.22,0.56,-0.30,-0.37,2.76,0.03
4.541,0.18,0.50,-0.23,-0.37,2.76,0.03
4.542,0.18,0.50,-0.23,-0.52,2.63,0.03
4.542,0.16,0.43,-0.19,-0.52,2.63,0.03
4.543,0.16,0.43,-0.19,-0.41,2.62,-0.29
4.554,0.14,0.36,-0.17,-0.41,2.62,-0.29
4.556,0.14,0.36,-0.17,-0.28,2.54,-0.78
4.557,0.14,0.36,-0.17,-0.28,2.52,-1.21
4.558,0.12,0.30,-0.17,-0.28,2.52,-1.21
4.559,0.10,0.24,-0.17,-0.28,2.52,-1.21
4.56,0.10,0.24,-0.17,-0.37,2.45,-1.51
4.561,0.10,0.24,-0.17,-0.45,2.37,-1.69
4.562,0.08,0.19,-0.16,-0.45,2.37,-1.69
4.568,0.08,0.19,-0.16,-0.53,2.18,-1.70
4.57,0.08,0.17,-0.13,-0.53,2.18,-1.70
4.571,0.08,0.17,-0.13,-0.57,1.74,-1.65
4.572,0.09,0.15,-0.10,-0.57,1.74,-1.65
4.576,0.09,0.15,-0.10,-0.56,1.21,-1.67
4.577,0.11,0.15,-0.07,-0.56,1.21,-1.67
4.583,0.14,0.15,-0.04,-0.56,1.21,-1.67
4.584,0.14,0.15,-0.04,-0.55,0.58,-1.77
4.587,0.16,0.15,-0.02,-0.55,0.58,-1.77
4.588,0.16,0.15,-0.02,-0.60,-0.04,-1.90
4.592,0.18,0.14,-0.00,-0.60,-0.04,-1.90
4.592,0.18,0.14,-0.00,-0.71,-0.65,-1.98
4.599,0.19,0.13,-0.00,-0.71,-0.65,-1.98
4.602,0.19,0.13,-0.00,-0.88,-1.24,-2.01
4.603,0.19,0.12,-0.00,-0.88,-1.24,-2.01
4.604,0.19,0.12,-0.00,-1.11,-1.75,-1.89
4.607,0.20,0.11,-0.00,-1.11,-1.75,-1.89
4.608,0.20,0.11,-0.00,-1.30,-2.17,-1.87
4.612,0.20,0.10,-0.00,-1.30,-2.17,-1.87
4.613,0.20,0.10,-0.00,-1.31,-2.57,-1.91
4.618,0.20,0.09,-0.01,-1.31,-2.57,-1.91
4.62,0.20,0.09,-0.01,-1.20,-2.81,-1.88
4.622,0.20,0.09,-0.01,-1.20,-2.81,-1.88
4.623,0.20,0.09,-0.01,-1.02,-2.98,-1.90
4.627,0.20,0.09,-0.01,-0.79,-3.07,-1.93
4.628,0.19,0.08,-0.01,-0.79,-3.07,-1.93
4.633,0.19,0.08,-0.02,-0.79,-3.07,-1.93
4.634,0.19,0.08,-0.02,-0.52,-2.98,-2.00
4.637,0.17,0.10,-0.01,-0.52,-2.98,-2.00
4.638,0.17,0.10,-0.01,-0.27,-2.92,-2.12
4.642,0.15,0.12,-0.01,-0.27,-2.92,-2.12
4.643,0.15,0.12,-0.01,0.04,-2.68,-2.20
4.65,0.15,0.12,-0.01,0.39,-2.27,-2.24
4.652,0.12,0.13,-0.02,0.39,-2.27,-2.24
4.653,0.10,0.16,-0.05,0.39,-2.27,-2.24
4.654,0.10,0.16,-0.05,0.55,-1.85,-2.12
4.657,0.08,0.17,-0.09,0.55,-1.85,-2.12
4.658,0.08,0.17,-0.09,0.58,-1.44,-1.89
4.662,0.07,0.17,-0.12,0.58,-1.44,-1.89
4.663,0.07,0.17,-0.12,0.49,-0.98,-1.79
4.668,0.07,0.17,-0.12,0.28,-0.45,-1.69
4.67,0.07,0.17,-0.16,0.28,-0.45,-1.69
4.672,0.06,0.16,-0.18,0.28,-0.45,-1.69
4.673,0.06,0.16,-0.18,0.06,-0.08,-1.62
4.677,0.05,0.14,-0.19,0.06,-0.08,-1.62
4.678,0.05,0.14,-0.19,-0.13,0.20,-1.62
4.69,0.03,0.11,-0.18,-0.13,0.20,-1.62
4.692,0.03,0.11,-0.18,-0.24,0.52,-1.52
4.693,-0.00,0.06,-0.15,-0.24,0.52,-1.52
4.694,-0.00,0.06,-0.15,-0.25,0.72,-1.39
4.695,-0.02,0.02,-0.12,-0.25,0.72,-1.39
4.697,-0.02,0.02,-0.12,-0.20,0.88,-1.24
4.698,-0.04,-0.01,-0.08,-0.20,0.88,-1.24
4.7,-0.04,-0.01,-0.08,-0.11,0.91,-1.07
4.705,-0.05,-0.04,-0.04,-0.11,0.91,-1.07
4.707,-0.05,-0.04,-0.04,0.04,0.90,-0.95
4.708,-0.05,-0.04,-0.04,0.22,0.83,-0.81
4.709,-0.06,-0.06,0.00,0.22,0.83,-0.81
4.713,-0.07,-0.07,0.03,0.22,0.83,-0.81
4.715,-0.07,-0.07,0.03,0.36,0.73,-0.79
4.718,-0.09,-0.09,0.07,0.36,0.73,-0.79
4.72,-0.09,-0.09,0.07,0.51,0.58,-0.80
4.723,-0.10,-0.09,0.10,0.51,0.58,-0.80
4.724,-0.10,-0.09,0.10,0.70,0.50,-0.78
4.728,-0.10,-0.09,0.10,0.89,0.43,-0.84
4.729,-0.11,-0.08,0.12,0.89,0.43,-0.84
4.733,-0.13,-0.06,0.14,0.89,0.43,-0.84
4.735,-0.13,-0.06,0.14,0.93,0.34,-0.96
4.738,-0.16,-0.03,0.14,0.93,0.34,-0.96
4.739,-0.16,-0.03,0.14,0.83,0.20,-1.04
4.743,-0.18,0.02,0.14,0.83,0.20,-1.04
4.744,-0.18,0.02,0.14,0.63,0.05,-1.10
4.749,-0.18,0.02,0.14,0.35,-0.05,-1.04
4.752,-0.22,0.06,0.14,0.35,-0.05,-1.04
4.753,-0.24,0.09,0.14,0.35,-0.05,-1.04
4.754,-0.24,0.09,0.14,0.13,-0.26,-0.87
4.758,-0.26,0.10,0.14,0.13,-0.26,-0.87
4.759,-0.26,0.10,0.14,-0.08,-0.45,-0.68
4.763,-0.27,0.09,0.15,-0.08,-0.45,-0.68
4.764,-0.27,0.09,0.15,-0.23,-0.58,-0.55
4.784,-0.27,0.09,0.15,-0.40,-0.67,-0.47
4.786,-0.28,0.08,0.15,-0.40,-0.67,-0.47
4.788,-0.28,0.07,0.15,-0.40,-0.67,-0.47
4.789,-0.28,0.07,0.15,-0.53,-0.74,-0.48
4.791,-0.28,0.07,0.15,-0.67,-0.76,-0.48
4.792,-0.29,0.06,0.14,-0.67,-0.76,-0.48
4.793,-0.31,0.05,0.13,-0.67,-0.76,-0.48
4.794,-0.31,0.05,0.13,-0.84,-0.76,-0.45
4.794,-0.31,0.05,0.13,-0.96,-0.79,-0.35
4.795,-0.32,0.04,0.12,-0.96,-0.79,-0.35
4.796,-0.32,0.04,0.12,-1.03,-0.80,-0.24
4.796,-0.33,0.03,0.11,-1.03,-0.80,-0.24
4.799,-0.33,0.03,0.11,-1.13,-0.80,-0.09
4.801,-0.34,0.01,0.11,-1.13,-0.80,-0.09
4.803,-0.34,0.01,0.11,-1.23,-0.80,-0.02
4.804,-0.34,-0.02,0.11,-1.23,-0.80,-0.02
4.808,-0.34,-0.02,0.11,-1.27,-0.81,-0.00
4.809,-0.34,-0.04,0.12,-1.27,-0.81,-0.00
4.813,-0.34,-0.06,0.13,-1.27,-0.81,-0.00
4.814,-0.34,-0.06,0.13,-1.24,-0.80,0.04
4.819,-0.33,-0.09,0.14,-1.24,-0.80,0.04
4.82,-0.33,-0.09,0.14,-1.23,-0.85,-0.02
4.823,-0.32,-0.11,0.16,-1.23,-0.85,-0.02
4.824,-0.32,-0.11,0.16,-1.17,-0.87,-0.02
4.829,-0.32,-0.11,0.16,-1.09,-0.92,0.01
4.829,-0.30,-0.13,0.17,-1.09,-0.92,0.01
4.839,-0.30,-0.13,0.17,-0.99,-0.99,0.01
4.84,-0.29,-0.13,0.18,-0.99,-0.99,0.01
4.841,-0.29,-0.13,0.18,-0.91,-1.05,0.05
4.842,-0.27,-0.13,0.19,-0.91,-1.05,0.05
4.844,-0.27,-0.13,0.19,-0.86,-1.14,0.15
4.845,-0.25,-0.13,0.19,-0.86,-1.14,0.15
4.853,-0.25,-0.13,0.19,-0.82,-1.18,0.22
4.855,-0.22,-0.13,0.20,-0.82,-1.18,0.22
4.856,-0.19,-0.12,0.20,-0.82,-1.18,0.22
4.856,-0.19,-0.12,0.20,-0.84,-1.18,0.30
4.859,-0.17,-0.11,0.20,-0.84,-1.18,0.30
4.86,-0.17,-0.11,0.20,-0.82,-1.24,0.34
4.866,-0.14,-0.11,0.20,-0.82,-1.24,0.34
4.868,-0.14,-0.11,0.20,-0.80,-1.34,0.36
4.87,-0.14,-0.11,0.20,-0.75,-1.38,0.38
4.871,-0.12,-0.11,0.21,-0.75,-1.38,0.38
4.874,-0.11,-0.12,0.20,-0.75,-1.38,0.38
4.875,-0.11,-0.12,0.20,-0.71,-1.47,0.36
4.879,-0.09,-0.14,0.20,-0.71,-1.47,0.36
4.88,-0.09,-0.14,0.20,-0.74,-1.48,0.35
4.884,-0.09,-0.14,0.20,-0.73,-1.53,0.28
4.886,-0.07,-0.16,0.19,-0.73,-1.53,0.28
4.889,-0.04,-0.19,0.18,-0.73,-1.53,0.28
4.89,-0.04,-0.19,0.18,-0.69,-1.54,0.20
4.894,-0.02,-0.20,0.16,-0.69,-1.54,0.20
4.895,-0.02,-0.20,0.16,-0.62,-1.56,0.09
4.899,-0.02,-0.20,0.16,-0.51,-1.55,0.13
4.902,-0.00,-0.19,0.15,-0.51,-1.55,0.13
4.904,-0.00,-0.19,0.15,-0.36,-1.51,0.18
4.905,0.02,-0.18,0.13,-0.36,-1.51,0.18
4.909,0.05,-0.17,0.11,-0.36,-1.51,0.18
4.91,0.05,-0.17,0.11,-0.31,-1.42,0.19
4.917,0.05,-0.17,0.11,-0.30,-1.41,0.22
4.919,0.07,-0.16,0.09,-0.30,-1.41,0.22
4.92,0.07,-0.16,0.09,-0.32,-1.32,0.29
4.921,0.09,-0.16,0.07,-0.32,-1.32,0.29
4.924,0.11,-0.17,0.05,-0.32,-1.32,0.29
4.925,0.11,-0.17,0.05,-0.33,-1.21,0.35
4.929,0.11,-0.17,0.05,-0.37,-1.14,0.42
4.93,0.13,-0.19,0.04,-0.37,-1.14,0.42
4.934,0.14,-0.20,0.03,-0.37,-1.14,0.42
4.936,0.14,-0.20,0.03,-0.43,-1.03,0.51
4.939,0.14,-0.20,0.03,-0.39,-1.01,0.66
4.94,0.16,-0.21,0.02,-0.39,-1.01,0.66
4.944,0.16,-0.21,0.02,-0.37,-0.98,0.79
4.945,0.18,-0.23,0.01,-0.37,-0.98,0.79
4.958,0.20,-0.24,-0.01,-0.37,-0.98,0.79
4.959,0.20,-0.24,-0.01,-0.48,-0.93,0.84
4.96,0.21,-0.24,-0.02,-0.48,-0.93,0.84
4.961,0.21,-0.24,-0.02,-0.42,-0.90,0.77
4.962,0.21,-0.24,-0.02,-0.37,-0.91,0.75
4.963,0.23,-0.24,-0.04,-0.37,-0.91,0.75
4.974,0.24,-0.24,-0.05,-0.37,-0.91,0.75
4.976,0.24,-0.24,-0.05,-0.53,-0.86,0.77
4.977,0.24,-0.24,-0.05,-0.46,-0.86,0.72
4.978,0.25,-0.23,-0.05,-0.46,-0.86,0.72
4.979,0.26,-0.22,-0.04,-0.46,-0.86,0.72
4.981,0.26,-0.22,-0.04,-0.40,-0.87,0.71
4.982,0.26,-0.22,-0.04,-0.30,-0.93,0.68
4.983,0.27,-0.22,-0.03,-0.30,-0.93,0.68
4.986,0.29,-0.21,-0.02,-0.30,-0.93,0.68
4.988,0.29,-0.21,-0.02,-0.16,-0.93,0.59
4.99,0.29,-0.21,-0.02,0.07,-0.90,0.43
4.992,0.30,-0.19,-0.01,0.07,-0.90,0.43
4.994,0.30,-0.19,-0.01,0.29,-0.84,0.30
4.995,0.32,-0.17,-0.01,0.29,-0.84,0.30
5.0,0.33,-0.15,-0.02,0.29,-0.84,0.30
5.003,0.33,-0.15,-0.02,0.50,-0.87,0.11
5.005,0.33,-0.15,-0.02,0.57,-0.83,0.15
5.006,0.34,-0.11,-0.03,0.57,-0.83,0.15
5.01,0.34,-0.11,-0.03,0.64,-0.75,0.21
5.011,0.35,-0.07,-0.05,0.64,-0.75,0.21
5.017,0.37,-0.02,-0.06,0.64,-0.75,0.21
5.019,0.37,-0.02,-0.06,0.63,-0.68,0.34
5.036,0.38,0.02,-0.08,0.63,-0.68,0.34
5.037,0.38,0.02,-0.08,0.60,-0.59,0.50
5.038,0.38,0.02,-0.08,0.46,-0.51,0.60
5.039,0.40,0.06,-0.08,0.46,-0.51,0.60
5.04,0.40,0.06,-0.08,0.32,-0.45,0.67
5.041,0.42,0.08,-0.08,0.32,-0.45,0.67
5.042,0.42,0.08,-0.08,0.27,-0.42,0.75
5.043,0.43,0.11,-0.07,0.27,-0.42,0.75
5.043,0.43,0.11,-0.07,0.26,-0.47,0.82
5.044,0.43,0.12,-0.07,0.26,-0.47,0.82
5.045,0.43,0.12,-0.07,0.26,-0.58,0.91
5.046,0.43,0.14,-0.06,0.26,-0.58,0.91
5.051,0.43,0.14,-0.06,0.21,-0.73,1.03
5.053,0.43,0.16,-0.06,0.21,-0.73,1.03
5.055,0.43,0.18,-0.07,0.21,-0.73,1.03
5.056,0.43,0.18,-0.07,0.17,-0.83,1.12
5.06,0.43,0.18,-0.07,0.18,-0.89,1.20
5.061,0.44,0.19,-0.07,0.18,-0.89,1.20
5.074,0.46,0.19,-0.07,0.18,-0.89,1.20
5.076,0.46,0.19,-0.07,0.19,-0.99,1.33
5.077,0.46,0.19,-0.07,0.19,-1.04,1.43
5.077,0.47,0.19,-0.09,0.19,-1.04,1.43
5.078,0.47,0.19,-0.09,0.22,-1.11,1.44
5.079,0.49,0.18,-0.09,0.22,-1.11,1.44
5.088,0.52,0.16,-0.08,0.22,-1.11,1.44
5.09,0.52,0.16,-0.08,0.28,-1.23,1.42
5.091,0.54,0.13,-0.07,0.28,-1.23,1.42
5.092,0.54,0.13,-0.07,0.49,-1.42,1.48
5.092,0.58,0.08,-0.04,0.49,-1.42,1.48
5.093,0.58,0.08,-0.04,0.78,-1.63,1.52
5.095,0.61,0.03,-0.01,0.78,-1.63,1.52
5.096,0.61,0.03,-0.01,1.12,-1.74,1.35
5.1,0.61,0.03,-0.01,1.48,-1.88,1.03
5.102,0.66,-0.03,0.02,1.48,-1.88,1.03
5.105,0.66,-0.03,0.02,1.91,-1.97,0.68
5.106,0.71,-0.07,0.05,1.91,-1.97,0.68
5.11,0.71,-0.07,0.05,2.27,-2.08,0.39
5.111,0.75,-0.07,0.06,2.27,-2.08,0.39
5.115,0.79,-0.02,0.06,2.27,-2.08,0.39
5.117,0.79,-0.02,0.06,2.56,-2.20,0.15
5.12,0.79,-0.02,0.06,2.72,-2.31,-0.04
5.121,0.83,0.07,0.04,2.72,-2.31,-0.04
5.126,0.83,0.07,0.04,2.49,-2.33,-0.19
5.126,0.87,0.18,0.00,2.49,-2.33,-0.19
5.132,0.87,0.18,0.00,1.92,-2.35,-0.24
5.135,0.91,0.28,-0.04,1.92,-2.35,-0.24
5.136,0.94,0.34,-0.06,1.92,-2.35,-0.24
5.137,0.94,0.34,-0.06,1.39,-2.32,-0.16
5.141,0.94,0.34,-0.06,1.02,-2.20,-0.03
5.142,0.98,0.35,-0.08,1.02,-2.20,-0.03
5.146,0.98,0.35,-0.08,0.78,-2.07,0.04
5.147,1.02,0.33,-0.09,0.78,-2.07,0.04
5.151,1.02,0.33,-0.09,0.67,-1.89,-0.00
5.153,1.05,0.30,-0.11,0.67,-1.89,-0.00
5.156,1.05,0.30,-0.11,0.64,-1.72,-0.27
5.156,1.08,0.26,-0.13,0.64,-1.72,-0.27
5.161,1.08,0.26,-0.13,0.65,-1.57,-0.53
5.162,1.08,0.23,-0.16,0.65,-1.57,-0.53
5.166,1.08,0.23,-0.16,0.69,-1.29,-0.70
5.169,1.08,0.19,-0.19,0.69,-1.29,-0.70
5.171,1.08,0.19,-0.19,0.74,-0.96,-0.84
5.172,1.06,0.16,-0.21,0.74,-0.96,-0.84
5.176,1.04,0.13,-0.23,0.74,-0.96,-0.84
5.177,1.04,0.13,-0.23,0.82,-0.61,-1.02
5.183,1.04,0.13,-0.23,0.81,-0.23,-1.22
5.185,1.03,0.10,-0.25,0.81,-0.23,-1.22
5.186,1.01,0.07,-0.26,0.81,-0.23,-1.22
5.187,1.01,0.07,-0.26,0.73,0.14,-1.52
5.191,1.01,0.07,-0.26,0.62,0.47,-1.87
5.192,0.99,0.05,-0.26,0.62,0.47,-1.87
5.196,0.97,0.05,-0.25,0.62,0.47,-1.87
5.197,0.97,0.05,-0.25,0.47,0.84,-2.20
5.208,0.97,0.05,-0.25,0.27,1.10,-2.43
5.209,0.95,0.07,-0.24,0.27,1.10,-2.43
5.212,0.92,0.09,-0.23,0.27,1.10,-2.43
5.213,0.92,0.09,-0.23,0.07,1.27,-2.53
5.214,0.92,0.09,-0.23,-0.15,1.43,-2.58
5.215,0.90,0.13,-0.22,-0.15,1.43,-2.58
5.225,0.87,0.15,-0.21,-0.15,1.43,-2.58
5.227,0.87,0.15,-0.21,-0.50,1.48,-2.62
5.227,0.84,0.17,-0.20,-0.50,1.48,-2.62
5.228,0.84,0.17,-0.20,-0.94,1.53,-2.57
5.229,0.82,0.17,-0.18,-0.94,1.53,-2.57
5.23,0.82,0.17,-0.18,-1.29,1.58,-2.52
5.234,0.82,0.17,-0.18,-1.52,1.61,-2.35
5.236,0.80,0.16,-0.15,-1.52,1.61,-2.35
5.237,0.79,0.15,-0.12,-1.52,1.61,-2.35
5.238,0.79,0.15,-0.12,-1.61,1.58,-2.12
5.241,0.79,0.15,-0.12,-1.64,1.42,-1.99
5.242,0.77,0.12,-0.09,-1.64,1.42,-1.99
5.246,0.77,0.08,-0.06,-1.64,1.42,-1.99
5.247,0.77,0.08,-0.06,-1.58,1.25,-1.79
5.251,0.78,0.04,-0.03,-1.58,1.25,-1.79
5.253,0.78,0.04,-0.03,-1.46,1.11,-1.57
5.256,0.79,0.01,0.00,-1.46,1.11,-1.57
5.257,0.79,0.01,0.00,-1.31,0.94,-1.41
5.261,0.79,0.01,0.00,-1.11,0.71,-1.26
5.262,0.81,-0.01,0.03,-1.11,0.71,-1.26
5.267,0.81,-0.01,0.03,-0.82,0.53,-1.15
5.269,0.83,-0.03,0.06,-0.82,0.53,-1.15
5.285,0.83,-0.03,0.06,-0.41,0.36,-1.03
5.287,0.85,-0.04,0.09,-0.41,0.36,-1.03
5.289,0.86,-0.04,0.10,-0.41,0.36,-1.03
5.29,0.86,-0.04,0.10,-0.04,0.15,-0.87
5.291,0.86,-0.04,0.10,0.31,-0.03,-0.74
5.292,0.87,-0.05,0.11,0.31,-0.03,-0.74
5.293,0.87,-0.05,0.11,0.60,-0.19,-0.62
5.294,0.87,-0.05,0.11,0.60,-0.19,-0.62
5.294,0.87,-0.05,0.11,0.85,-0.39,-0.51
5.295,0.88,-0.03,0.10,0.85,-0.39,-0.51
5.298,0.88,-0.02,0.09,0.85,-0.39,-0.51
5.3,0.88,-0.02,0.09,1.05,-0.46,-0.43
5.302,0.88,-0.02,0.09,1.13,-0.53,-0.31
5.303,0.89,-0.00,0.06,1.13,-0.53,-0.31
5.307,0.89,-0.00,0.06,1.16,-0.52,-0.32
5.308,0.90,0.02,0.04,1.16,-0.52,-0.32
5.312,0.90,0.02,0.04,1.13,-0.54,-0.43
5.313,0.92,0.03,0.01,1.13,-0.54,-0.43
5.317,0.92,0.03,0.01,1.06,-0.53,-0.51
5.318,0.93,0.04,-0.01,1.06,-0.53,-0.51
5.322,0.93,0.04,-0.03,1.06,-0.53,-0.51
5.323,0.93,0.04,-0.03,0.98,-0.46,-0.62
5.327,0.93,0.05,-0.05,0.98,-0.46,-0.62
5.328,0.93,0.05,-0.05,0.87,-0.41,-0.73
5.339,0.93,0.05,-0.05,0.64,-0.39,-0.78
5.341,0.93,0.06,-0.08,0.64,-0.39,-0.78
5.343,0.93,0.06,-0.09,0.64,-0.39,-0.78
5.345,0.93,0.06,-0.09,0.41,-0.35,-0.86
5.346,0.93,0.06,-0.10,0.41,-0.35,-0.86
5.348,0.93,0.06,-0.10,0.24,-0.34,-0.86
5.349,0.93,0.06,-0.10,0.07,-0.20,-0.82
5.351,0.93,0.06,-0.11,0.07,-0.20,-0.82
5.365,0.93,0.05,-0.11,0.07,-0.20,-0.82
5.366,0.93,0.05,-0.11,-0.11,-0.11,-0.91
5.368,0.92,0.05,-0.12,-0.11,-0.11,-0.91
5.368,0.92,0.05,-0.12,-0.24,0.01,-0.99
5.369,0.91,0.03,-0.12,-0.24,0.01,-0.99
5.37,0.91,0.03,-0.12,-0.41,0.09,-0.98
5.371,0.91,0.03,-0.12,-0.56,0.15,-0.94
5.372,0.89,0.02,-0.12,-0.56,0.15,-0.94
5.373,0.89,0.02,-0.12,-0.67,0.23,-0.89
5.373,0.87,-0.00,-0.12,-0.67,0.23,-0.89
5.377,0.86,-0.02,-0.12,-0.67,0.23,-0.89
5.378,0.86,-0.02,-0.12,-0.75,0.35,-0.82
5.383,0.84,-0.04,-0.12,-0.75,0.35,-0.82
5.385,0.84,-0.04,-0.12,-0.77,0.45,-0.88
5.388,0.84,-0.04,-0.12,-0.73,0.54,-0.92
5.389,0.83,-0.06,-0.12,-0.73,0.54,-0.92
5.393,0.83,-0.06,-0.12,-0.75,0.61,-0.92
5.393,0.81,-0.09,-0.13,-0.75,0.61,-0.92
5.397,0.80,-0.12,-0.14,-0.75,0.61,-0.92
5.398,0.80,-0.12,-0.14,-0.75,0.72,-0.94
5.403,0.80,-0.12,-0.14,-0.76,0.80,-0.94
5.405,0.78,-0.15,-0.14,-0.76,0.80,-0.94
5.408,0.77,-0.16,-0.15,-0.76,0.80,-0.94
5.409,0.77,-0.16,-0.15,-0.78,0.91,-0.97
5.413,0.77,-0.16,-0.15,-0.85,0.98,-1.03
5.414,0.76,-0.17,-0.15,-0.85,0.98,-1.03
5.428,0.74,-0.17,-0.14,-0.85,0.98,-1.03
5.43,0.74,-0.17,-0.14,-0.88,1.00,-0.99
5.431,0.72,-0.17,-0.13,-0.88,1.00,-0.99
5.433,0.72,-0.17,-0.13,-0.89,1.04,-0.99
5.435,0.72,-0.17,-0.13,-0.91,1.03,-0.89
5.439,0.70,-0.17,-0.11,-0.91,1.03,-0.89
5.44,0.67,-0.16,-0.09,-0.91,1.03,-0.89
5.441,0.67,-0.16,-0.09,-0.92,0.93,-0.85
5.442,0.65,-0.17,-0.07,-0.92,0.93,-0.85
5.443,0.65,-0.17,-0.07,-0.96,0.87,-0.76
5.444,0.64,-0.19,-0.05,-0.96,0.87,-0.76
5.445,0.64,-0.19,-0.05,-1.03,0.75,-0.71
5.449,0.63,-0.21,-0.03,-1.03,0.75,-0.71
5.451,0.63,-0.21,-0.03,-1.01,0.67,-0.74
5.454,0.62,-0.23,-0.02,-1.01,0.67,-0.74
5.455,0.62,-0.23,-0.02,-0.92,0.65,-0.74
5.458,0.61,-0.25,-0.01,-0.92,0.65,-0.74
5.459,0.61,-0.25,-0.01,-0.93,0.58,-0.76
5.463,0.61,-0.25,-0.01,-0.91,0.57,-0.81
5.464,0.60,-0.27,-0.00,-0.91,0.57,-0.81
5.469,0.60,-0.27,-0.00,-0.89,0.51,-0.87
5.471,0.59,-0.28,-0.00,-0.89,0.51,-0.87
5.474,0.59,-0.28,-0.00,-0.78,0.48,-0.86
5.475,0.58,-0.29,-0.00,-0.78,0.48,-0.86
5.478,0.57,-0.31,0.00,-0.78,0.48,-0.86
5.479,0.57,-0.31,0.00,-0.70,0.50,-0.92
5.484,0.55,-0.32,0.00,-0.70,0.50,-0.92
5.486,0.55,-0.32,0.00,-0.58,0.44,-0.98
5.488,0.54,-0.33,0.00,-0.58,0.44,-0.98
5.489,0.54,-0.33,0.00,-0.47,0.43,-0.99
5.493,0.54,-0.33,0.00,-0.36,0.48,-0.89
5.494,0.53,-0.34,0.01,-0.36,0.48,-0.89
5.5,0.53,-0.34,0.01,-0.36,0.48,-0.89
5.502,0.53,-0.34,0.01,-0.25,0.52,-0.78
5.503,0.52,-0.33,0.02,-0.25,0.52,-0.78
5.504,0.52,-0.33,0.02,-0.16,0.60,-0.66
5.508,0.51,-0.31,0.03,-0.16,0.60,-0.66
5.509,0.51,-0.31,0.03,-0.04,0.60,-0.66
5.514,0.51,-0.31,0.03,0.01,0.61,-0.62
5.515,0.49,-0.29,0.04,0.01,0.61,-0.62
5.518,0.49,-0.29,0.04,0.05,0.59,-0.50
5.521,0.47,-0.27,0.05,0.05,0.59,-0.50
5.543,0.46,-0.26,0.06,0.05,0.59,-0.50
5.544,0.46,-0.26,0.06,0.02,0.58,-0.36
5.545,0.44,-0.25,0.06,0.02,0.58,-0.36
5.546,0.44,-0.25,0.06,-0.03,0.57,-0.32
5.547,0.44,-0.25,0.06,-0.08,0.59,-0.23
5.548,0.43,-0.25,0.06,-0.08,0.59,-0.23
5.549,0.43,-0.25,0.06,-0.14,0.58,-0.17
5.55,0.41,-0.24,0.06,-0.14,0.58,-0.17
5.551,0.40,-0.24,0.06,-0.14,0.58,-0.17
5.552,0.40,-0.24,0.06,-0.21,0.56,-0.10
5.553,0.38,-0.24,0.06,-0.21,0.56,-0.10
5.554,0.38,-0.24,0.06,-0.25,0.60,-0.01
5.554,0.38,-0.24,0.06,-0.28,0.65,0.07
5.555,0.36,-0.24,0.06,-0.28,0.65,0.07
5.559,0.34,-0.23,0.06,-0.28,0.65,0.07
5.56,0.34,-0.23,0.06,-0.33,0.67,0.15
5.563,0.33,-0.22,0.06,-0.33,0.67,0.15
5.564,0.33,-0.22,0.06,-0.30,0.65,0.24
5.575,0.32,-0.21,0.07,-0.30,0.65,0.24
5.577,0.32,-0.21,0.07,-0.22,0.69,0.27
5.578,0.32,-0.21,0.07,-0.18,0.74,0.37
5.579,0.31,-0.19,0.07,-0.18,0.74,0.37
5.581,0.30,-0.18,0.07,-0.18,0.74,0.37
5.582,0.30,-0.18,0.07,-0.13,0.79,0.36
5.589,0.29,-0.17,0.08,-0.13,0.79,0.36
5.591,0.29,-0.17,0.08,-0.10,0.81,0.25
5.592,0.27,-0.15,0.08,-0.10,0.81,0.25
5.593,0.27,-0.15,0.08,-0.05,0.86,0.22
5.594,0.27,-0.15,0.08,-0.05,0.90,0.18
5.595,0.24,-0.15,0.08,-0.05,0.90,0.18
5.599,0.24,-0.15,0.08,-0.10,0.98,0.20
5.6,0.22,-0.15,0.08,-0.10,0.98,0.20
5.604,0.20,-0.16,0.08,-0.10,0.98,0.20
5.606,0.20,-0.16,0.08,-0.07,1.04,0.24
5.609,0.19,-0.18,0.08,-0.07,1.04,0.24
5.61,0.19,-0.18,0.08,-0.08,1.05,0.27
5.617,0.19,-0.18,0.08,-0.14,1.08,0.34
5.618,0.19,-0.19,0.08,-0.14,1.08,0.34
5.62,0.20,-0.20,0.09,-0.14,1.08,0.34
5.621,0.20,-0.20,0.09,-0.17,1.08,0.43
5.624,0.21,-0.20,0.11,-0.17,1.08,0.43
5.625,0.21,-0.20,0.11,-0.14,0.94,0.47
5.629,0.23,-0.19,0.13,-0.14,0.94,0.47
5.631,0.23,-0.19,0.13,-0.11,0.73,0.62
5.635,0.23,-0.19,0.13,-0.03,0.47,0.78
5.637,0.26,-0.18,0.16,-0.03,0.47,0.78
5.639,0.26,-0.18,0.16,0.06,0.24,0.94
5.64,0.29,-0.17,0.18,0.06,0.24,0.94
5.644,0.32,-0.15,0.20,0.06,0.24,0.94
5.645,0.32,-0.15,0.20,0.20,-0.02,0.96
5.65,0.36,-0.14,0.21,0.20,-0.02,0.96
5.652,0.36,-0.14,0.21,0.30,-0.18,0.99
5.655,0.38,-0.12,0.22,0.30,-0.18,0.99
5.655,0.38,-0.12,0.22,0.38,-0.30,1.06
5.659,0.41,-0.09,0.23,0.38,-0.30,1.06
5.66,0.41,-0.09,0.23,0.40,-0.47,1.04
5.664,0.44,-0.06,0.24,0.40,-0.47,1.04
5.665,0.44,-0.06,0.24,0.42,-0.58,1.04
5.67,0.46,-0.02,0.24,0.42,-0.58,1.04
5.672,0.46,-0.02,0.24,0.41,-0.65,1.13
5.674,0.46,-0.02,0.24,0.38,-0.74,1.22
5.675,0.48,0.01,0.25,0.38,-0.74,1.22
5.68,0.50,0.04,0.26,0.38,-0.74,1.22
5.681,0.50,0.04,0.26,0.32,-0.79,1.30
5.693,0.50,0.04,0.26,0.28,-0.74,1.35
5.695,0.53,0.07,0.27,0.28,-0.74,1.35
5.696,0.56,0.10,0.28,0.28,-0.74,1.35
5.697,0.56,0.10,0.28,0.21,-0.71,1.38
5.698,0.56,0.10,0.28,0.14,-0.59,1.30
5.699,0.59,0.12,0.29,0.14,-0.59,1.30
5.715,0.61,0.15,0.28,0.14,-0.59,1.30
5.717,0.61,0.15,0.28,0.13,-0.43,1.25
5.718,0.62,0.18,0.28,0.13,-0.43,1.25
5.719,0.62,0.18,0.28,0.13,-0.23,1.17
5.72,0.63,0.19,0.26,0.13,-0.23,1.17
5.721,0.63,0.19,0.26,0.17,-0.03,1.04
5.722,0.63,0.19,0.26,0.29,0.16,0.87
5.722,0.63,0.19,0.24,0.29,0.16,0.87
5.723,0.61,0.16,0.22,0.29,0.16,0.87
5.724,0.61,0.16,0.22,0.46,0.31,0.75
5.725,0.59,0.10,0.20,0.46,0.31,0.75
5.725,0.59,0.10,0.20,0.72,0.41,0.69
5.73,0.56,0.03,0.17,0.72,0.41,0.69
5.731,0.56,0.03,0.17,1.00,0.45,0.65
5.736,0.54,-0.05,0.13,1.00,0.45,0.65
5.738,0.54,-0.05,0.13,1.39,0.53,0.56
5.741,0.54,-0.05,0.13,1.80,0.58,0.41
5.741,0.53,-0.12,0.10,1.80,0.58,0.41
5.745,0.52,-0.15,0.05,1.80,0.58,0.41
5.746,0.52,-0.15,0.05,2.17,0.71,0.15
5.751,0.52,-0.15,0.05,2.51,0.87,-0.14
5.753,0.50,-0.16,-0.01,2.51,0.87,-0.14
5.755,0.50,-0.16,-0.01,2.61,1.08,-0.28
5.756,0.47,-0.14,-0.08,2.61,1.08,-0.28
5.76,0.44,-0.09,-0.15,2.61,1.08,-0.28
5.761,0.44,-0.09,-0.15,2.47,1.41,-0.35
5.767,0.44,-0.09,-0.15,2.05,1.77,-0.37
5.769,0.40,0.00,-0.19,2.05,1.77,-0.37
5.771,0.35,0.11,-0.21,2.05,1.77,-0.37
5.771,0.35,0.11,-0.21,1.38,2.04,-0.35
5.789,0.35,0.11,-0.21,0.75,2.19,-0.25
5.79,0.31,0.21,-0.18,0.75,2.19,-0.25
5.791,0.26,0.29,-0.12,0.75,2.19,-0.25
5.792,0.26,0.29,-0.12,0.36,2.11,-0.16
5.793,0.22,0.33,-0.05,0.36,2.11,-0.16
5.794,0.22,0.33,-0.05,0.22,1.88,-0.11
5.795,0.20,0.33,0.00,0.22,1.88,-0.11
5.796,0.20,0.33,0.00,0.21,1.63,-0.02
5.797,0.20,0.33,0.00,0.24,1.46,-0.05
5.798,0.19,0.30,0.03,0.24,1.46,-0.05
5.801,0.19,0.27,0.04,0.24,1.46,-0.05
5.802,0.19,0.27,0.04,0.23,1.38,-0.24
5.805,0.19,0.24,0.04,0.23,1.38,-0.24
5.806,0.19,0.24,0.04,0.19,1.42,-0.52
5.81,0.19,0.24,0.04,0.10,1.56,-0.87
5.811,0.20,0.22,0.05,0.10,1.56,-0.87
5.823,0.20,0.22,0.05,0.06,1.69,-1.20
5.825,0.19,0.21,0.06,0.06,1.69,-1.20
5.825,0.16,0.20,0.07,0.06,1.69,-1.20
5.826,0.16,0.20,0.07,0.03,1.76,-1.47
5.828,0.16,0.20,0.07,-0.04,1.76,-1.59
5.83,0.13,0.20,0.09,-0.04,1.76,-1.59
5.831,0.09,0.20,0.10,-0.04,1.76,-1.59
5.832,0.09,0.20,0.10,-0.14,1.68,-1.59
5.838,0.09,0.20,0.10,-0.17,1.51,-1.50
5.84,0.05,0.20,0.11,-0.17,1.51,-1.50
5.841,0.01,0.19,0.13,-0.17,1.51,-1.50
5.842,0.01,0.19,0.13,-0.25,1.20,-1.41
5.846,-0.01,0.19,0.14,-0.25,1.20,-1.41
5.846,-0.01,0.19,0.14,-0.39,0.84,-1.30
5.85,-0.01,0.18,0.14,-0.39,0.84,-1.30
5.852,-0.01,0.18,0.14,-0.57,0.54,-1.25
5.856,-0.01,0.18,0.15,-0.57,0.54,-1.25
5.857,-0.01,0.18,0.15,-0.73,0.14,-1.28
5.861,-0.01,0.18,0.15,-0.84,-0.17,-1.41
5.862,0.00,0.19,0.16,-0.84,-0.17,-1.41
5.866,0.01,0.21,0.17,-0.84,-0.17,-1.41
5.868,0.01,0.21,0.17,-1.00,-0.46,-1.55
5.871,0.01,0.23,0.18,-1.00,-0.46,-1.55
5.871,0.01,0.23,0.18,-1.16,-0.78,-1.67
5.876,0.01,0.25,0.19,-1.16,-0.78,-1.67
5.877,0.01,0.25,0.19,-1.25,-1.11,-1.71
5.883,0.01,0.25,0.19,-1.35,-1.46,-1.64
5.885,-0.00,0.25,0.19,-1.35,-1.46,-1.64
5.886,0.00,0.24,0.19,-1.35,-1.46,-1.64
5.887,0.00,0.24,0.19,-1.33,-1.79,-1.51
5.891,0.01,0.21,0.18,-1.33,-1.79,-1.51
5.892,0.01,0.21,0.18,-1.21,-2.04,-1.37
5.899,0.01,0.21,0.18,-1.04,-2.24,-1.25
5.902,0.02,0.17,0.16,-1.04,-2.24,-1.25
5.903,0.03,0.12,0.14,-1.04,-2.24,-1.25
5.904,0.03,0.12,0.14,-0.84,-2.33,-1.21
5.906,0.03,0.12,0.14,-0.60,-2.30,-1.27
5.907,0.04,0.08,0.11,-0.60,-2.30,-1.27
5.911,0.04,0.08,0.11,-0.31,-2.08,-1.36
5.912,0.05,0.05,0.07,-0.31,-2.08,-1.36
5.917,0.05,0.05,0.07,-0.05,-1.81,-1.38
5.918,0.04,0.02,0.03,-0.05,-1.81,-1.38
5.921,0.04,0.02,0.03,0.14,-1.43,-1.38
5.922,0.03,0.01,-0.01,0.14,-1.43,-1.38
5.926,0.01,0.01,-0.05,0.14,-1.43,-1.38
5.927,0.01,0.01,-0.05,0.28,-1.02,-1.28
5.941,0.01,0.01,-0.05,0.33,-0.60,-1.14
5.942,-0.00,0.02,-0.08,0.33,-0.60,-1.14
5.943,-0.00,0.02,-0.08,0.36,-0.17,-1.03
5.944,-0.02,0.03,-0.10,0.36,-0.17,-1.03
5.96,-0.03,0.04,-0.10,0.36,-0.17,-1.03
5.962,-0.03,0.04,-0.10,0.44,0.32,-0.97
5.963,-0.04,0.03,-0.10,0.44,0.32,-0.97
5.964,-0.04,0.03,-0.10,0.48,0.76,-0.97
5.965,-0.07,0.03,-0.08,0.48,0.76,-0.97
5.967,-0.07,0.03,-0.08,0.49,1.00,-0.97
5.968,-0.07,0.03,-0.08,0.46,1.21,-0.97
5.968,-0.10,0.04,-0.05,0.46,1.21,-0.97
5.969,-0.10,0.04,-0.05,0.52,1.32,-0.85
5.97,-0.13,0.05,-0.01,0.52,1.32,-0.85
5.97,-0.13,0.05,-0.01,0.64,1.42,-0.75
5.971,-0.17,0.06,0.04,0.64,1.42,-0.75
5.972,-0.20,0.07,0.08,0.64,1.42,-0.75
5.973,-0.20,0.07,0.08,0.72,1.46,-0.59
5.977,-0.20,0.07,0.08,0.87,1.44,-0.54
5.979,-0.22,0.09,0.12,0.87,1.44,-0.54
5.983,-0.25,0.11,0.15,0.87,1.44,-0.54
5.985,-0.25,0.11,0.15,0.96,1.49,-0.62
5.987,-0.25,0.11,0.15,0.93,1.50,-0.65
5.988,-0.29,0.14,0.18,0.93,1.50,-0.65
5.992,-0.34,0.18,0.20,0.93,1.50,-0.65
5.993,-0.34,0.18,0.20,0.83,1.47,-0.62
6.0,-0.34,0.18,0.20,0.67,1.43,-0.56
6.002,-0.39,0.21,0.22,0.67,1.43,-0.56
6.003,-0.44,0.24,0.24,0.67,1.43,-0.56
6.004,-0.44,0.24,0.24,0.43,1.34,-0.44
6.007,-0.44,0.24,0.24,0.18,1.10,-0.35
6.008,-0.49,0.25,0.27,0.18,1.10,-0.35
6.012,-0.49,0.25,0.27,-0.05,0.86,-0.31
6.013,-0.53,0.26,0.29,-0.05,0.86,-0.31
6.017,-0.53,0.26,0.29,-0.26,0.64,-0.22
6.019,-0.56,0.26,0.32,-0.26,0.64,-0.22
6.022,-0.59,0.25,0.33,-0.26,0.64,-0.22
6.023,-0.59,0.25,0.33,-0.43,0.36,-0.13
6.038,-0.59,0.25,0.33,-0.65,0.13,-0.07
6.041,-0.60,0.23,0.34,-0.65,0.13,-0.07
6.042,-0.60,0.23,0.34,-0.87,-0.09,0.03
6.043,-0.61,0.21,0.35,-0.87,-0.09,0.03
6.044,-0.62,0.19,0.36,-0.87,-0.09,0.03
6.044,-0.62,0.19,0.36,-1.04,-0.35,0.08
6.045,-0.62,0.19,0.36,-1.14,-0.55,0.09
6.046,-0.63,0.17,0.36,-1.14,-0.55,0.09
6.047,-0.64,0.15,0.35,-1.14,-0.55,0.09
6.049,-0.64,0.15,0.35,-1.17,-0.67,0.15
6.053,-0.64,0.13,0.35,-1.17,-0.67,0.15
6.054,-0.64,0.13,0.35,-1.21,-0.71,0.14
6.058,-0.64,0.13,0.35,-1.16,-0.78,0.06
6.059,-0.64,0.10,0.34,-1.16,-0.78,0.06
6.062,-0.64,0.06,0.33,-1.16,-0.78,0.06
6.063,-0.64,0.06,0.33,-1.20,-0.79,0.07
6.07,-0.64,0.06,0.33,-1.22,-0.76,0.11
6.071,-0.64,0.03,0.32,-1.22,-0.76,0.11
6.072,-0.64,-0.01,0.32,-1.22,-0.76,0.11
6.073,-0.64,-0.01,0.32,-1.22,-0.72,0.18
6.077,-0.64,-0.01,0.32,-1.12,-0.65,0.28
6.078,-0.63,-0.04,0.32,-1.12,-0.65,0.28
6.089,-0.62,-0.06,0.31,-1.12,-0.65,0.28
6.091,-0.62,-0.06,0.31,-0.93,-0.55,0.34
6.092,-0.61,-0.08,0.31,-0.93,-0.55,0.34
6.093,-0.61,-0.08,0.31,-0.83,-0.49,0.38
6.094,-0.61,-0.08,0.31,-0.80,-0.40,0.39
6.095,-0.60,-0.08,0.30,-0.80,-0.40,0.39
6.104,-0.60,-0.08,0.30,-0.68,-0.28,0.35
6.106,-0.59,-0.09,0.30,-0.68,-0.28,0.35
6.107,-0.59,-0.09,0.29,-0.68,-0.28,0.35
6.107,-0.59,-0.09,0.29,-0.63,-0.15,0.30
6.108,-0.60,-0.08,0.29,-0.63,-0.15,0.30
6.109,-0.60,-0.08,0.29,-0.62,-0.07,0.23
6.113,-0.61,-0.07,0.28,-0.62,-0.07,0.23
6.113,-0.61,-0.07,0.28,-0.53,0.01,0.18
6.117,-0.63,-0.06,0.27,-0.53,0.01,0.18
6.119,-0.63,-0.06,0.27,-0.49,0.07,0.12
6.123,-0.64,-0.05,0.25,-0.49,0.07,0.12
6.124,-0.64,-0.05,0.25,-0.49,0.11,0.03
6.128,-0.66,-0.05,0.23,-0.49,0.11,0.03
6.128,-0.66,-0.05,0.23,-0.55,0.13,0.01
6.133,-0.67,-0.05,0.21,-0.55,0.13,0.01
6.135,-0.67,-0.05,0.21,-0.59,0.18,0.05
6.138,-0.68,-0.05,0.19,-0.59,0.18,0.05
6.139,-0.68,-0.05,0.19,-0.61,0.13,0.05
6.143,-0.69,-0.05,0.17,-0.61,0.13,0.05
6.144,-0.69,-0.05,0.17,-0.71,0.07,-0.00
6.15,-0.70,-0.05,0.16,-0.71,0.07,-0.00
6.152,-0.70,-0.05,0.16,-0.78,0.01,0.07
6.153,-0.70,-0.05,0.16,-0.91,-0.10,0.10
6.154,-0.70,-0.05,0.15,-0.91,-0.10,0.10
6.158,-0.71,-0.07,0.15,-0.91,-0.10,0.10
6.159,-0.71,-0.07,0.15,-0.96,-0.18,0.13
6.163,-0.71,-0.08,0.14,-0.96,-0.18,0.13
6.164,-0.71,-0.08,0.14,-0.98,-0.25,0.19
6.169,-0.71,-0.08,0.14,-1.00,-0.32,0.19
6.17,-0.71,-0.09,0.14,-1.00,-0.32,0.19
6.173,-0.72,-0.11,0.14,-1.00,-0.32,0.19
6.174,-0.72,-0.11,0.14,-0.92,-0.40,0.25
6.178,-0.72,-0.13,0.13,-0.92,-0.40,0.25
6.179,-0.72,-0.13,0.13,-0.82,-0.45,0.28
6.185,-0.73,-0.16,0.11,-0.82,-0.45,0.28
6.186,-0.73,-0.16,0.11,-0.64,-0.47,0.31
6.188,-0.73,-0.19,0.09,-0.64,-0.47,0.31
6.189,-0.73,-0.19,0.09,-0.50,-0.43,0.28
6.193,-0.73,-0.19,0.09,-0.41,-0.29,0.27
6.194,-0.74,-0.21,0.06,-0.41,-0.29,0.27
6.211,-0.74,-0.21,0.06,-0.33,-0.16,0.28
6.213,-0.75,-0.23,0.03,-0.33,-0.16,0.28
6.215,-0.76,-0.24,0.00,-0.33,-0.16,0.28
6.216,-0.76,-0.24,0.00,-0.28,-0.02,0.28
6.218,-0.78,-0.25,-0.01,-0.28,-0.02,0.28
6.22,-0.78,-0.25,-0.01,-0.26,0.15,0.31
6.221,-0.80,-0.25,-0.03,-0.26,0.15,0.31
6.221,-0.80,-0.25,-0.03,-0.20,0.29,0.37
6.222,-0.80,-0.25,-0.03,-0.07,0.42,0.45
6.224,-0.81,-0.24,-0.04,-0.07,0.42,0.45
6.225,-0.81,-0.24,-0.04,0.06,0.52,0.46
6.226,-0.82,-0.23,-0.05,0.06,0.52,0.46
6.233,-0.82,-0.23,-0.05,0.13,0.51,0.49
6.235,-0.83,-0.21,-0.06,0.13,0.51,0.49
6.236,-0.83,-0.21,-0.06,0.20,0.51,0.48
6.236,-0.83,-0.19,-0.07,0.20,0.51,0.48
6.24,-0.84,-0.18,-0.08,0.20,0.51,0.48
6.241,-0.84,-0.18,-0.08,0.25,0.46,0.56
6.244,-0.84,-0.17,-0.08,0.25,0.46,0.56
6.245,-0.84,-0.17,-0.08,0.29,0.36,0.60
6.25,-0.84,-0.16,-0.08,0.29,0.36,0.60
6.251,-0.84,-0.16,-0.08,0.30,0.31,0.65
6.255,-0.83,-0.15,-0.08,0.30,0.31,0.65
6.255,-0.83,-0.15,-0.08,0.33,0.19,0.68
6.259,-0.81,-0.14,-0.08,0.33,0.19,0.68
6.26,-0.81,-0.14,-0.08,0.38,0.02,0.68
6.265,-0.79,-0.13,-0.08,0.38,0.02,0.68
6.269,-0.79,-0.13,-0.08,0.41,-0.19,0.73
6.271,-0.79,-0.13,-0.08,0.38,-0.55,0.81
6.271,-0.76,-0.11,-0.07,0.38,-0.55,0.81
6.274,-0.73,-0.08,-0.05,0.38,-0.55,0.81
6.275,-0.73,-0.08,-0.05,0.41,-0.89,1.02
6.295,-0.73,-0.08,-0.05,0.50,-1.17,1.02
6.298,-0.67,-0.07,-0.02,0.50,-1.17,1.02
6.3,-0.61,-0.07,-0.00,0.50,-1.17,1.02
6.303,-0.61,-0.07,-0.00,0.66,-1.45,0.81
6.304,-0.61,-0.07,-0.00,0.96,-1.58,0.52
6.305,-0.58,-0.08,0.01,0.96,-1.58,0.52
6.306,-0.56,-0.08,0.02,0.96,-1.58,0.52
6.307,-0.56,-0.08,0.02,1.25,-1.56,0.21
6.307,-0.56,-0.08,0.02,1.52,-1.36,0.13
6.308,-0.58,-0.06,0.01,1.52,-1.36,0.13
6.309,-0.58,-0.06,0.01,1.75,-0.92,0.30
6.31,-0.60,-0.01,-0.02,1.75,-0.92,0.30
6.31,-0.60,-0.01,-0.02,1.83,-0.36,0.59
6.311,-0.62,0.05,-0.05,1.83,-0.36,0.59
6.314,-0.63,0.14,-0.09,1.83,-0.36,0.59
6.315,-0.63,0.14,-0.09,1.74,0.20,0.91
6.319,-0.63,0.14,-0.09,1.50,0.64,1.04
6.32,-0.64,0.21,-0.12,1.50,0.64,1.04
6.324,-0.66,0.26,-0.15,1.50,0.64,1.04
6.325,-0.66,0.26,-0.15,1.15,0.91,1.08
6.329,-0.69,0.29,-0.16,1.15,0.91,1.08
6.33,-0.69,0.29,-0.16,0.82,1.07,1.12
6.341,-0.69,0.29,-0.16,0.50,1.15,1.17
6.342,-0.73,0.31,-0.17,0.50,1.15,1.17
6.343,-0.73,0.31,-0.17,0.20,1.17,1.27
6.344,-0.78,0.31,-0.17,0.20,1.17,1.27
6.346,-0.81,0.31,-0.18,0.20,1.17,1.27
6.356,-0.81,0.31,-0.18,0.07,1.14,1.44
6.358,-0.84,0.30,-0.18,0.07,1.14,1.44
6.359,-0.84,0.30,-0.18,0.04,1.14,1.54
6.36,-0.88,0.27,-0.20,0.04,1.14,1.54
6.361,-0.88,0.27,-0.20,0.14,1.17,1.66
6.362,-0.88,0.27,-0.20,0.31,1.16,1.76
6.363,-0.91,0.22,-0.21,0.31,1.16,1.76
6.366,-0.91,0.22,-0.21,0.53,1.09,1.80
6.367,-0.94,0.15,-0.22,0.53,1.09,1.80
6.37,-0.94,0.15,-0.22,0.85,1.00,1.72
6.371,-0.97,0.05,-0.22,0.85,1.00,1.72
6.375,-0.97,0.05,-0.22,1.27,0.83,1.48
6.376,-0.99,-0.08,-0.18,1.27,0.83,1.48
6.38,-0.99,-0.08,-0.18,1.80,0.51,1.00
6.381,-1.00,-0.22,-0.13,1.80,0.51,1.00
6.386,-1.01,-0.35,-0.06,1.80,0.51,1.00
6.388,-1.01,-0.35,-0.06,2.45,0.11,0.43
6.39,-1.01,-0.35,-0.06,3.16,-0.23,-0.11
6.391,-1.01,-0.42,0.02,3.16,-0.23,-0.11
6.395,-0.99,-0.43,0.10,3.16,-0.23,-0.11
6.396,-0.99,-0.43,0.10,3.85,-0.50,-0.45
6.4,-0.99,-0.43,0.10,4.33,-0.77,-0.74
6.402,-0.95,-0.35,0.16,4.33,-0.77,-0.74
6.405,-0.90,-0.15,0.21,4.33,-0.77,-0.74
6.406,-0.90,-0.15,0.21,4.49,-1.01,-0.97
6.41,-0.83,0.15,0.24,4.49,-1.01,-0.97
6.411,-0.83,0.15,0.24,4.51,-1.36,-1.15
6.417,-0.76,0.47,0.23,4.51,-1.36,-1.15
6.419,-0.76,0.47,0.23,4.25,-1.74,-1.23
6.42,-0.76,0.47,0.23,3.52,-2.02,-1.21
6.421,-0.68,0.73,0.20,3.52,-2.02,-1.21
6.425,-0.61,0.92,0.15,3.52,-2.02,-1.21
6.426,-0.61,0.92,0.15,2.49,-1.98,-0.98
6.43,-0.61,0.92,0.15,1.45,-1.82,-0.63
6.431,-0.55,1.00,0.10,1.45,-1.82,-0.63
6.436,-0.50,1.00,0.06,1.45,-1.82,-0.63
6.437,-0.50,1.00,0.06,0.49,-1.70,-0.42
6.44,-0.50,1.00,0.06,-0.35,-1.56,-0.35
6.441,-0.46,0.94,0.04,-0.35,-1.56,-0.35
6.445,-0.43,0.86,0.03,-0.35,-1.56,-0.35
6.447,-0.43,0.86,0.03,-0.91,-1.43,-0.44
6.452,-0.42,0.78,0.02,-0.91,-1.43,-0.44
6.453,-0.42,0.78,0.02,-1.33,-1.34,-0.68
6.455,-0.42,0.78,0.02,-1.61,-1.22,-0.91
6.456,-0.43,0.72,0.00,-1.61,-1.22,-0.91
6.461,-0.45,0.68,-0.02,-1.61,-1.22,-0.91
6.462,-0.45,0.68,-0.02,-1.91,-1.08,-1.20
6.476,-0.48,0.62,-0.06,-1.91,-1.08,-1.20
6.478,-0.48,0.62,-0.06,-2.18,-0.87,-1.37
6.479,-0.52,0.54,-0.09,-2.18,-0.87,-1.37
6.481,-0.52,0.54,-0.09,-2.41,-0.55,-1.51
6.482,-0.56,0.45,-0.13,-2.41,-0.55,-1.51
6.483,-0.56,0.45,-0.13,-2.56,-0.14,-1.58
6.484,-0.56,0.45,-0.13,-2.65,0.31,-1.71
6.485,-0.59,0.33,-0.16,-2.65,0.31,-1.71
6.487,-0.59,0.33,-0.16,-2.66,0.78,-1.88
6.489,-0.63,0.21,-0.20,-2.66,0.78,-1.88
6.497,-0.63,0.21,-0.20,-2.58,1.15,-2.03
6.499,-0.66,0.09,-0.22,-2.58,1.15,-2.03
6.501,-0.70,-0.02,-0.22,-2.58,1.15,-2.03
6.502,-0.70,-0.02,-0.22,-2.27,1.54,-2.05
6.503,-0.70,-0.02,-0.22,-1.85,1.89,-2.04
6.504,-0.74,-0.13,-0.22,-1.85,1.89,-2.04
6.506,-0.76,-0.22,-0.21,-1.85,1.89,-2.04
6.507,-0.76,-0.22,-0.21,-1.42,2.19,-1.96
6.511,-0.76,-0.22,-0.21,-0.94,2.42,-1.91
6.511,-0.78,-0.27,-0.20,-0.94,2.42,-1.91
6.516,-0.78,-0.31,-0.18,-0.94,2.42,-1.91
6.519,-0.78,-0.31,-0.18,-0.32,2.51,-1.87
6.521,-0.78,-0.31,-0.18,0.28,2.54,-1.78
6.522,-0.78,-0.32,-0.16,0.28,2.54,-1.78
6.526,-0.78,-0.32,-0.14,0.28,2.54,-1.78
6.526,-0.78,-0.32,-0.14,0.81,2.41,-1.65
6.544,-0.78,-0.32,-0.14,1.26,2.20,-1.53
6.546,-0.77,-0.28,-0.11,1.26,2.20,-1.53
6.547,-0.77,-0.28,-0.11,1.57,1.92,-1.45
6.548,-0.74,-0.22,-0.09,1.57,1.92,-1.45
6.549,-0.74,-0.22,-0.09,1.75,1.54,-1.44
6.549,-0.72,-0.13,-0.06,1.75,1.54,-1.44
6.55,-0.69,-0.01,-0.04,1.75,1.54,-1.44
6.551,-0.69,-0.01,-0.04,1.84,1.13,-1.42
6.552,-0.66,0.10,-0.02,1.84,1.13,-1.42
6.553,-0.66,0.10,-0.02,1.85,0.76,-1.36
6.556,-0.66,0.10,-0.02,1.76,0.39,-1.27
6.558,-0.64,0.19,-0.02,1.76,0.39,-1.27
6.561,-0.62,0.26,-0.02,1.76,0.39,-1.27
6.562,-0.62,0.26,-0.02,1.56,0.02,-1.20
6.566,-0.61,0.30,-0.03,1.56,0.02,-1.20
6.568,-0.61,0.30,-0.03,1.35,-0.31,-1.11
6.571,-0.59,0.31,-0.05,1.35,-0.31,-1.11
6.572,-0.59,0.31,-0.05,1.11,-0.60,-1.11
6.576,-0.57,0.30,-0.07,1.11,-0.60,-1.11
6.577,-0.57,0.30,-0.07,0.80,-0.87,-1.08
6.582,-0.57,0.30,-0.07,0.45,-1.14,-1.02
6.585,-0.55,0.29,-0.10,0.45,-1.14,-1.02
6.586,-0.55,0.29,-0.10,0.17,-1.39,-0.91
6.587,-0.53,0.27,-0.12,0.17,-1.39,-0.91
6.591,-0.53,0.27,-0.12,-0.01,-1.52,-0.76
6.592,-0.50,0.24,-0.15,-0.01,-1.52,-0.76
6.596,-0.50,0.24,-0.15,-0.16,-1.55,-0.65
6.597,-0.46,0.21,-0.18,-0.16,-1.55,-0.65
6.602,-0.43,0.17,-0.21,-0.16,-1.55,-0.65
6.603,-0.43,0.17,-0.21,-0.34,-1.70,-0.51
6.606,-0.39,0.12,-0.24,-0.34,-1.70,-0.51
6.607,-0.39,0.12,-0.24,-0.51,-1.82,-0.36
6.611,-0.35,0.08,-0.26,-0.51,-1.82,-0.36
6.612,-0.35,0.08,-0.26,-0.54,-1.83,-0.17
6.623,-0.31,0.03,-0.28,-0.54,-1.83,-0.17
6.625,-0.31,0.03,-0.28,-0.39,-1.69,0.03
6.626,-0.25,-0.02,-0.31,-0.39,-1.69,0.03
6.627,-0.25,-0.02,-0.31,-0.17,-1.48,0.15
6.628,-0.25,-0.02,-0.31,-0.18,-1.20,0.18
6.629,-0.19,-0.05,-0.36,-0.18,-1.20,0.18
6.646,-0.14,-0.07,-0.39,-0.18,-1.20,0.18
6.649,-0.14,-0.07,-0.39,-0.37,-0.90,0.08
6.651,-0.09,-0.08,-0.42,-0.37,-0.90,0.08
6.653,-0.09,-0.08,-0.42,-0.43,-0.56,-0.03
6.654,-0.05,-0.09,-0.45,-0.43,-0.56,-0.03
6.655,-0.05,-0.09,-0.45,-0.50,-0.16,-0.02
6.656,-0.01,-0.10,-0.46,-0.50,-0.16,-0.02
6.657,-0.01,-0.10,-0.46,-0.66,0.23,-0.08
6.658,-0.01,-0.10,-0.46,-0.85,0.66,-0.14
6.659,0.02,-0.11,-0.46,-0.85,0.66,-0.14
6.66,0.04,-0.12,-0.44,-0.85,0.66,-0.14
6.661,0.04,-0.12,-0.44,-1.00,0.95,-0.22
6.662,0.05,-0.13,-0.42,-1.00,0.95,-0.22
6.663,0.05,-0.13,-0.42,-1.12,1.18,-0.34
6.667,0.05,-0.13,-0.42,-1.21,1.31,-0.45
6.67,0.05,-0.14,-0.40,-1.21,1.31,-0.45
6.673,0.04,-0.15,-0.38,-1.21,1.31,-0.45
6.674,0.04,-0.15,-0.38,-1.25,1.46,-0.53
6.677,0.03,-0.16,-0.36,-1.25,1.46,-0.53
6.678,0.03,-0.16,-0.36,-1.30,1.56,-0.51
6.683,0.03,-0.16,-0.36,-1.32,1.43,-0.40
6.684,0.01,-0.18,-0.35,-1.32,1.43,-0.40
6.687,0.01,-0.18,-0.35,-1.34,1.32,-0.23
6.688,0.01,-0.18,-0.33,-1.34,1.32,-0.23
6.692,0.01,-0.18,-0.33,-1.33,1.27,-0.18
6.693,0.00,-0.18,-0.32,-1.33,1.27,-0.18
6.697,0.00,-0.18,-0.32,-1.34,1.19,-0.19
6.698,-0.01,-0.19,-0.31,-1.34,1.19,-0.19
6.702,-0.01,-0.19,-0.31,-1.37,1.14,-0.12
6.704,-0.02,-0.20,-0.30,-1.37,1.14,-0.12
6.707,-0.03,-0.22,-0.29,-1.37,1.14,-0.12
6.708,-0.03,-0.22,-0.29,-1.44,1.06,-0.03
6.712,-0.03,-0.22,-0.29,-1.41,1.00,0.06
6.713,-0.05,-0.23,-0.27,-1.41,1.00,0.06
6.717,-0.06,-0.24,-0.26,-1.41,1.00,0.06
6.719,-0.06,-0.24,-0.26,-1.41,0.95,0.10
6.722,-0.06,-0.24,-0.26,-1.46,0.87,0.13
6.723,-0.06,-0.26,-0.24,-1.46,0.87,0.13
6.727,-0.07,-0.27,-0.21,-1.46,0.87,0.13
6.728,-0.07,-0.27,-0.21,-1.47,0.79,0.22
6.741,-0.07,-0.27,-0.21,-1.45,0.70,0.21
6.743,-0.07,-0.28,-0.20,-1.45,0.70,0.21
6.744,-0.06,-0.29,-0.18,-1.45,0.70,0.21
6.745,-0.06,-0.29,-0.18,-1.36,0.63,0.19
6.746,-0.06,-0.29,-0.18,-1.28,0.59,0.21
6.747,-0.06,-0.31,-0.16,-1.28,0.59,0.21
6.756,-0.06,-0.31,-0.16,-1.21,0.52,0.23
6.757,-0.05,-0.33,-0.15,-1.21,0.52,0.23
6.759,-0.04,-0.34,-0.14,-1.21,0.52,0.23
6.759,-0.04,-0.34,-0.14,-1.10,0.50,0.16
6.76,-0.04,-0.34,-0.13,-1.10,0.50,0.16
6.761,-0.04,-0.34,-0.13,-1.04,0.52,0.10
6.763,-0.03,-0.34,-0.11,-1.04,0.52,0.10
6.765,-0.03,-0.34,-0.11,-0.98,0.58,0.13
6.768,-0.03,-0.34,-0.11,-0.88,0.59,0.20
6.77,-0.03,-0.33,-0.10,-0.88,0.59,0.20
6.773,-0.03,-0.33,-0.10,-0.79,0.63,0.23
6.774,-0.02,-0.33,-0.08,-0.79,0.63,0.23
6.777,-0.02,-0.33,-0.08,-0.70,0.69,0.29
6.778,-0.01,-0.32,-0.07,-0.70,0.69,0.29
6.795,-0.01,-0.32,-0.07,-0.72,0.76,0.35
6.797,-0.00,-0.31,-0.06,-0.72,0.76,0.35
6.798,-0.00,-0.31,-0.06,-0.82,0.93,0.43
6.8,0.01,-0.29,-0.04,-0.82,0.93,0.43
6.802,0.01,-0.29,-0.04,-0.91,0.89,0.49
6.803,0.01,-0.27,-0.02,-0.91,0.89,0.49
6.804,0.02,-0.25,0.01,-0.91,0.89,0.49
6.805,0.02,-0.25,0.01,-0.76,0.74,0.70
6.806,0.02,-0.25,0.01,-0.57,0.60,0.87
6.806,0.03,-0.24,0.04,-0.57,0.60,0.87
6.809,0.04,-0.24,0.06,-0.57,0.60,0.87
6.811,0.04,-0.24,0.06,-0.46,0.55,1.01
6.813,0.06,-0.24,0.08,-0.46,0.55,1.01
6.814,0.06,-0.24,0.08,-0.33,0.46,1.19
6.818,0.06,-0.24,0.08,-0.20,0.40,1.26
6.82,0.08,-0.23,0.09,-0.20,0.40,1.26
6.823,0.08,-0.23,0.09,-0.02,0.39,1.28
6.824,0.11,-0.22,0.09,-0.02,0.39,1.28
6.828,0.12,-0.20,0.09,-0.02,0.39,1.28
6.829,0.12,-0.20,0.09,0.20,0.40,1.19
6.833,0.13,-0.19,0.08,0.20,0.40,1.19
6.834,0.13,-0.19,0.08,0.31,0.35,1.10
6.838,0.13,-0.19,0.08,0.44,0.30,1.06
6.839,0.13,-0.19,0.07,0.44,0.30,1.06
6.843,0.13,-0.19,0.07,0.52,0.34,0.94
6.844,0.12,-0.19,0.06,0.52,0.34,0.94
6.849,0.10,-0.19,0.06,0.52,0.34,0.94
6.851,0.10,-0.19,0.06,0.60,0.32,0.86
6.853,0.10,-0.19,0.06,0.62,0.34,0.83
6.854,0.09,-0.19,0.05,0.62,0.34,0.83
6.858,0.09,-0.19,0.05,0.62,0.34,0.83
6.859,0.09,-0.19,0.05,0.64,0.44,0.79
6.863,0.09,-0.19,0.05,0.67,0.62,0.68
6.864,0.08,-0.17,0.05,0.67,0.62,0.68
6.868,0.08,-0.12,0.05,0.67,0.62,0.68
6.87,0.08,-0.12,0.05,0.64,0.85,0.60
6.873,0.08,-0.12,0.05,0.59,0.99,0.46
6.874,0.08,-0.07,0.05,0.59,0.99,0.46
6.878,0.08,-0.07,0.05,0.63,1.08,0.44
6.879,0.05,-0.02,0.05,0.63,1.08,0.44
6.889,0.05,-0.02,0.05,0.71,1.16,0.52
6.891,0.02,0.02,0.05,0.71,1.16,0.52
6.893,-0.01,0.04,0.04,0.71,1.16,0.52
6.893,-0.01,0.04,0.04,0.78,1.16,0.75
6.894,-0.03,0.02,0.03,0.78,1.16,0.75
6.895,-0.03,0.02,0.03,0.80,1.08,1.04
6.907,-0.03,0.00,0.01,0.80,1.08,1.04
6.909,-0.03,0.00,0.01,0.79,0.98,1.29
6.91,-0.00,-0.03,-0.00,0.79,0.98,1.29
6.911,-0.00,-0.03,-0.00,0.74,0.82,1.47
6.912,0.04,-0.05,-0.01,0.74,0.82,1.47
6.913,0.04,-0.05,-0.01,0.70,0.62,1.56
6.914,0.04,-0.05,-0.01,0.69,0.49,1.53
6.916,0.09,-0.04,-0.02,0.69,0.49,1.53
6.919,0.09,-0.04,-0.02,0.79,0.39,1.50
6.92,0.13,-0.03,-0.01,0.79,0.39,1.50
6.924,0.13,-0.03,-0.01,0.95,0.29,1.49
6.925,0.15,0.00,-0.01,0.95,0.29,1.49
6.928,0.17,0.02,-0.01,0.95,0.29,1.49
6.93,0.17,0.02,-0.01,1.17,0.31,1.57
6.935,0.17,0.02,-0.00,1.17,0.31,1.57
6.937,0.17,0.02,-0.00,1.52,0.32,1.66
6.938,0.17,0.00,-0.01,1.52,0.32,1.66
6.939,0.17,0.00,-0.01,1.90,0.31,1.54
6.944,0.17,-0.05,-0.02,1.90,0.31,1.54
6.945,0.17,-0.05,-0.02,2.38,0.29,1.30
6.95,0.16,-0.13,-0.04,2.38,0.29,1.30
6.953,0.16,-0.13,-0.04,2.88,0.24,1.01
6.954,0.15,-0.22,-0.08,2.88,0.24,1.01
6.955,0.15,-0.22,-0.08,3.29,0.17,0.64
6.959,0.14,-0.29,-0.14,3.29,0.17,0.64
6.96,0.14,-0.29,-0.14,3.51,0.18,0.29
6.966,0.13,-0.33,-0.19,3.51,0.18,0.29
6.968,0.13,-0.33,-0.19,3.57,0.20,-0.09
6.97,0.13,-0.30,-0.24,3.57,0.20,-0.09
6.971,0.13,-0.30,-0.24,3.55,0.25,-0.27
6.974,0.13,-0.30,-0.24,3.25,0.39,-0.46
6.975,0.13,-0.20,-0.28,3.25,0.39,-0.46
6.979,0.13,-0.20,-0.28,2.73,0.65,-0.55
6.98,0.12,-0.02,-0.31,2.73,0.65,-0.55
6.984,0.12,-0.02,-0.31,2.09,1.02,-0.60
6.986,0.10,0.17,-0.31,2.09,1.02,-0.60
6.989,0.10,0.17,-0.31,1.35,1.20,-0.52
6.99,0.06,0.33,-0.29,1.35,1.20,-0.52
6.994,0.06,0.33,-0.29,0.53,1.26,-0.35
6.995,0.01,0.42,-0.24,0.53,1.26,-0.35
7.008,0.01,0.42,-0.24,-0.19,1.21,-0.09
7.01,-0.04,0.47,-0.18,-0.19,1.21,-0.09
7.011,-0.04,0.47,-0.18,-0.61,1.13,0.07
7.012,-0.07,0.48,-0.12,-0.61,1.13,0.07
7.013,-0.08,0.48,-0.06,-0.61,1.13,0.07
7.014,-0.08,0.48,-0.06,-0.84,1.21,0.10
7.015,-0.07,0.48,-0.03,-0.84,1.21,0.10
7.016,-0.07,0.48,-0.03,-0.96,1.34,-0.12
7.029,-0.07,0.48,-0.03,-1.04,1.45,-0.38
7.031,-0.05,0.47,-0.01,-1.04,1.45,-0.38
7.033,-0.05,0.47,-0.01,-1.10,1.51,-0.66
7.034,-0.04,0.45,0.01,-1.10,1.51,-0.66
7.036,-0.04,0.45,0.01,-1.20,1.57,-0.88
7.037,-0.04,0.42,0.02,-1.20,1.57,-0.88
7.067,-0.04,0.42,0.02,-1.31,1.58,-0.98
7.068,-0.03,0.38,0.04,-1.31,1.58,-0.98
7.068,-0.03,0.38,0.04,-1.41,1.50,-1.03
7.07,-0.03,0.34,0.06,-1.41,1.50,-1.03
7.071,-0.03,0.34,0.06,-1.37,1.33,-1.08
7.072,-0.03,0.30,0.07,-1.37,1.33,-1.08
7.072,-0.01,0.26,0.09,-1.37,1.33,-1.08
7.073,-0.01,0.26,0.09,-1.38,0.94,-1.11
7.074,-0.00,0.23,0.11,-1.38,0.94,-1.11
7.074,-0.00,0.23,0.11,-1.45,0.41,-1.18
7.075,-0.00,0.23,0.11,-1.50,-0.13,-1.16
7.076,0.02,0.21,0.13,-1.50,-0.13,-1.16
7.076,0.02,0.21,0.13,-1.50,-0.70,-1.21
7.077,0.04,0.19,0.14,-1.50,-0.70,-1.21
7.078,0.07,0.19,0.14,-1.50,-0.70,-1.21
7.078,0.07,0.19,0.14,-1.48,-1.22,-1.30
7.079,0.09,0.19,0.14,-1.48,-1.22,-1.30
7.08,0.09,0.19,0.14,-1.38,-1.66,-1.40
7.08,0.11,0.18,0.12,-1.38,-1.66,-1.40
7.081,0.11,0.18,0.12,-1.18,-2.02,-1.45
7.084,0.11,0.18,0.12,-1.05,-2.30,-1.56
7.087,0.12,0.16,0.10,-1.05,-2.30,-1.56
7.09,0.12,0.16,0.10,-0.93,-2.54,-1.66
7.09,0.12,0.14,0.08,-0.93,-2.54,-1.66
7.095,0.12,0.14,0.08,-0.72,-2.74,-1.73
7.095,0.12,0.12,0.07,-0.72,-2.74,-1.73
7.101,0.12,0.12,0.07,-0.40,-2.78,-1.75
7.102,0.11,0.09,0.06,-0.40,-2.78,-1.75
7.105,0.11,0.09,0.06,-0.02,-2.67,-1.77
7.106,0.11,0.07,0.06,-0.02,-2.67,-1.77
7.11,0.11,0.06,0.05,-0.02,-2.67,-1.77
7.111,0.11,0.06,0.05,0.44,-2.52,-1.89
7.123,0.09,0.05,0.03,0.44,-2.52,-1.89
7.125,0.09,0.05,0.03,0.82,-2.34,-2.00
7.126,0.09,0.05,0.03,1.12,-1.96,-2.12
7.126,0.07,0.06,0.02,1.12,-1.96,-2.12
7.127,0.05,0.09,-0.01,1.12,-1.96,-2.12
7.128,0.05,0.09,-0.01,1.36,-1.52,-2.14
7.13,0.02,0.13,-0.05,1.36,-1.52,-2.14
7.131,0.02,0.13,-0.05,1.44,-1.06,-2.11
7.141,0.00,0.17,-0.08,1.44,-1.06,-2.11
7.143,0.00,0.17,-0.08,1.36,-0.58,-1.99
7.144,0.00,0.17,-0.08,1.20,-0.03,-1.86
7.145,-0.01,0.19,-0.11,1.20,-0.03,-1.86
7.147,-0.02,0.20,-0.13,1.20,-0.03,-1.86
7.148,-0.02,0.20,-0.13,0.95,0.43,-1.75
7.152,-0.02,0.20,-0.13,0.73,0.84,-1.69
7.154,-0.02,0.19,-0.12,0.73,0.84,-1.69
7.156,-0.02,0.19,-0.12,0.57,1.32,-1.67
7.157,-0.03,0.19,-0.10,0.57,1.32,-1.67
7.161,-0.03,0.19,-0.10,0.37,1.66,-1.67
7.162,-0.05,0.21,-0.07,0.37,1.66,-1.67
7.167,-0.05,0.21,-0.07,0.19,1.82,-1.55
7.169,-0.09,0.22,-0.03,0.19,1.82,-1.55
7.171,-0.13,0.22,0.03,0.19,1.82,-1.55
7.171,-0.13,0.22,0.03,0.08,1.86,-1.34
7.175,-0.18,0.20,0.09,0.08,1.86,-1.34
7.176,-0.18,0.20,0.09,0.04,1.97,-1.09
7.181,-0.23,0.18,0.15,0.04,1.97,-1.09
7.182,-0.23,0.18,0.15,0.14,1.95,-0.87
7.186,-0.27,0.15,0.21,0.14,1.95,-0.87
7.188,-0.27,0.15,0.21,0.28,1.82,-0.66
7.19,-0.31,0.12,0.26,0.28,1.82,-0.66
7.191,-0.31,0.12,0.26,0.29,1.62,-0.53
7.195,-0.31,0.12,0.26,0.36,1.35,-0.56
7.196,-0.35,0.11,0.31,0.36,1.35,-0.56
7.201,-0.35,0.11,0.31,0.47,1.05,-0.57
7.203,-0.39,0.11,0.35,0.47,1.05,-0.57
7.206,-0.41,0.14,0.38,0.47,1.05,-0.57
7.207,-0.41,0.14,0.38,0.52,0.78,-0.53
7.211,-0.43,0.17,0.40,0.52,0.78,-0.53
7.212,-0.43,0.17,0.40,0.44,0.51,-0.56
7.217,-0.43,0.17,0.40,0.28,0.24,-0.46
7.219,-0.46,0.21,0.42,0.28,0.24,-0.46
7.221,-0.46,0.21,0.42,0.06,-0.04,-0.35
7.222,-0.47,0.24,0.43,0.06,-0.04,-0.35
7.226,-0.48,0.25,0.44,0.06,-0.04,-0.35
7.227,-0.48,0.25,0.44,-0.16,-0.20,-0.24
7.233,-0.49,0.26,0.44,-0.16,-0.20,-0.24
7.235,-0.49,0.26,0.44,-0.39,-0.47,-0.20
7.236,-0.50,0.25,0.44,-0.39,-0.47,-0.20
7.237,-0.50,0.25,0.44,-0.63,-0.72,-0.18
7.241,-0.50,0.25,0.44,-0.82,-0.95,-0.20
7.242,-0.51,0.23,0.44,-0.82,-0.95,-0.20
7.246,-0.51,0.23,0.44,-1.04,-1.08,-0.29
7.247,-0.51,0.20,0.43,-1.04,-1.08,-0.29
7.251,-0.52,0.17,0.42,-1.04,-1.08,-0.29
7.253,-0.52,0.17,0.42,-1.28,-1.15,-0.35
7.256,-0.52,0.14,0.41,-1.28,-1.15,-0.35
7.257,-0.52,0.14,0.41,-1.42,-1.25,-0.37
7.261,-0.52,0.14,0.41,-1.53,-1.28,-0.34
7.262,-0.52,0.10,0.39,-1.53,-1.28,-0.34
7.268,-0.52,0.06,0.37,-1.53,-1.28,-0.34
7.27,-0.52,0.06,0.37,-1.59,-1.23,-0.36
7.271,-0.52,0.06,0.37,-1.64,-1.15,-0.41
7.272,-0.51,0.01,0.35,-1.64,-1.15,-0.41
7.276,-0.51,0.01,0.35,-1.67,-1.10,-0.39
7.277,-0.51,-0.04,0.33,-1.67,-1.10,-0.39
7.292,-0.51,-0.04,0.33,-1.74,-1.00,-0.35
7.293,-0.51,-0.08,0.31,-1.74,-1.00,-0.35
7.316,-0.51,-0.08,0.31,-1.74,-0.95,-0.33
7.318,-0.51,-0.11,0.29,-1.74,-0.95,-0.33
7.32,-0.51,-0.11,0.29,-1.72,-0.83,-0.30
7.321,-0.50,-0.13,0.28,-1.72,-0.83,-0.30
7.322,-0.49,-0.15,0.28,-1.72,-0.83,-0.30
7.323,-0.49,-0.15,0.28,-1.62,-0.73,-0.25
7.324,-0.49,-0.15,0.28,-1.51,-0.65,-0.19
7.324,-0.48,-0.17,0.27,-1.51,-0.65,-0.19
7.325,-0.48,-0.17,0.27,-1.45,-0.57,-0.16
7.326,-0.47,-0.18,0.26,-1.45,-0.57,-0.16
7.326,-0.47,-0.18,0.26,-1.34,-0.53,-0.10
7.327,-0.46,-0.19,0.25,-1.34,-0.53,-0.10
7.328,-0.46,-0.19,0.25,-1.22,-0.46,0.00
7.328,-0.45,-0.20,0.23,-1.22,-0.46,0.00
7.329,-0.44,-0.20,0.22,-1.22,-0.46,0.00
7.33,-0.44,-0.20,0.22,-1.11,-0.44,0.00
7.33,-0.44,-0.20,0.22,-1.02,-0.46,0.00
7.332,-0.43,-0.21,0.20,-1.02,-0.46,0.00
7.333,-0.43,-0.21,0.20,-1.00,-0.44,-0.02
7.334,-0.42,-0.22,0.18,-1.00,-0.44,-0.02
7.337,-0.42,-0.22,0.18,-1.01,-0.46,-0.04
7.338,-0.41,-0.22,0.16,-1.01,-0.46,-0.04
7.342,-0.41,-0.22,0.16,-0.99,-0.50,-0.02
7.343,-0.41,-0.22,0.14,-0.99,-0.50,-0.02
7.347,-0.41,-0.22,0.14,-0.94,-0.52,-0.03
7.348,-0.40,-0.21,0.11,-0.94,-0.52,-0.03
7.352,-0.40,-0.21,0.08,-0.94,-0.52,-0.03
7.354,-0.40,-0.21,0.08,-1.01,-0.57,-0.02
7.357,-0.40,-0.21,0.08,-1.06,-0.62,0.08
7.358,-0.39,-0.20,0.06,-1.06,-0.62,0.08
7.362,-0.39,-0.20,0.06,-1.01,-0.68,0.17
7.363,-0.39,-0.20,0.05,-1.01,-0.68,0.17
7.367,-0.39,-0.20,0.05,-0.95,-0.67,0.25
7.37,-0.38,-0.20,0.03,-0.95,-0.67,0.25
7.372,-0.38,-0.20,0.03,-0.82,-0.72,0.35
7.374,-0.38,-0.21,0.01,-0.82,-0.72,0.35
7.377,-0.37,-0.22,-0.01,-0.82,-0.72,0.35
7.378,-0.37,-0.22,-0.01,-0.70,-0.74,0.38
7.382,-0.37,-0.22,-0.01,-0.55,-0.71,0.37
7.384,-0.37,-0.22,-0.04,-0.55,-0.71,0.37
7.387,-0.37,-0.22,-0.04,-0.40,-0.70,0.42
7.388,-0.36,-0.22,-0.07,-0.40,-0.70,0.42
7.392,-0.36,-0.21,-0.11,-0.40,-0.70,0.42
7.393,-0.36,-0.21,-0.11,-0.33,-0.68,0.43
7.397,-0.35,-0.19,-0.15,-0.33,-0.68,0.43
7.398,-0.35,-0.19,-0.15,-0.32,-0.61,0.51
7.402,-0.35,-0.17,-0.18,-0.32,-0.61,0.51
7.404,-0.35,-0.17,-0.18,-0.31,-0.58,0.62
7.407,-0.34,-0.16,-0.21,-0.31,-0.58,0.62
7.408,-0.34,-0.16,-0.21,-0.32,-0.58,0.69
7.412,-0.33,-0.15,-0.23,-0.32,-0.58,0.69
7.413,-0.33,-0.15,-0.23,-0.34,-0.52,0.78
7.427,-0.31,-0.16,-0.24,-0.34,-0.52,0.78
7.43,-0.31,-0.16,-0.24,-0.30,-0.55,0.85
7.431,-0.30,-0.17,-0.25,-0.30,-0.55,0.85
7.433,-0.30,-0.17,-0.25,-0.27,-0.57,0.78
7.434,-0.28,-0.18,-0.26,-0.27,-0.57,0.78
7.435,-0.28,-0.18,-0.26,-0.22,-0.62,0.70
7.436,-0.28,-0.18,-0.26,-0.10,-0.73,0.65
7.437,-0.26,-0.19,-0.26,-0.10,-0.73,0.65
7.439,-0.24,-0.21,-0.25,-0.10,-0.73,0.65
7.441,-0.24,-0.21,-0.25,0.02,-0.88,0.59
7.45,-0.21,-0.23,-0.25,0.02,-0.88,0.59
7.452,-0.21,-0.23,-0.25,0.12,-1.05,0.62
7.453,-0.21,-0.23,-0.25,0.28,-1.23,0.64
7.453,-0.17,-0.25,-0.24,0.28,-1.23,0.64
7.454,-0.13,-0.26,-0.22,0.28,-1.23,0.64
7.455,-0.13,-0.26,-0.22,0.43,-1.30,0.59
7.458,-0.08,-0.28,-0.20,0.43,-1.30,0.59
7.459,-0.08,-0.28,-0.20,0.64,-1.35,0.44
7.462,-0.04,-0.28,-0.18,0.64,-1.35,0.44
7.463,-0.04,-0.28,-0.18,0.90,-1.30,0.24
7.467,-0.04,-0.28,-0.18,1.17,-1.17,0.10
7.469,-0.03,-0.25,-0.17,1.17,-1.17,0.10
7.473,-0.02,-0.21,-0.17,1.17,-1.17,0.10
7.474,-0.02,-0.21,-0.17,1.33,-0.93,0.04
7.478,-0.03,-0.15,-0.17,1.33,-0.93,0.04
7.478,-0.03,-0.15,-0.17,1.42,-0.61,0.14
7.483,-0.03,-0.08,-0.17,1.42,-0.61,0.14
7.485,-0.03,-0.08,-0.17,1.44,-0.34,0.27
7.488,-0.03,-0.08,-0.17,1.47,-0.01,0.35
7.489,-0.03,-0.02,-0.17,1.47,-0.01,0.35
7.493,-0.03,0.04,-0.18,1.47,-0.01,0.35
7.494,-0.03,0.04,-0.18,1.38,0.31,0.46
7.499,-0.04,0.09,-0.19,1.38,0.31,0.46
7.502,-0.04,0.09,-0.19,1.27,0.50,0.47
7.504,-0.07,0.15,-0.19,1.27,0.50,0.47
7.505,-0.07,0.15,-0.19,1.16,0.71,0.58
7.508,-0.07,0.15,-0.19,1.01,0.79,0.78
7.509,-0.10,0.20,-0.20,1.01,0.79,0.78
7.513,-0.14,0.25,-0.20,1.01,0.79,0.78
7.514,-0.14,0.25,-0.20,0.84,0.80,1.09
7.519,-0.18,0.30,-0.19,0.84,0.80,1.09
7.521,-0.18,0.30,-0.19,0.73,0.88,1.44
7.523,-0.22,0.32,-0.19,0.73,0.88,1.44
7.525,-0.22,0.32,-0.19,0.61,0.96,1.68
7.529,-0.25,0.33,-0.18,0.61,0.96,1.68
7.531,-0.25,0.33,-0.18,0.44,1.01,1.92
7.535,-0.29,0.32,-0.18,0.44,1.01,1.92
7.538,-0.29,0.32,-0.18,0.35,1.00,2.10
7.558,-0.33,0.29,-0.17,0.35,1.00,2.10
7.56,-0.33,0.29,-0.17,0.26,1.02,2.18
7.56,-0.38,0.25,-0.16,0.26,1.02,2.18
7.561,-0.38,0.25,-0.16,0.21,1.00,2.28
7.562,-0.38,0.25,-0.16,0.28,0.94,2.32
7.563,-0.43,0.18,-0.15,0.28,0.94,2.32
7.564,-0.48,0.09,-0.12,0.28,0.94,2.32
7.565,-0.48,0.09,-0.12,0.42,0.88,2.24
7.566,-0.53,-0.05,-0.07,0.42,0.88,2.24
7.567,-0.53,-0.05,-0.07,0.71,0.90,2.06
7.568,-0.56,-0.20,-0.02,0.71,0.90,2.06
7.569,-0.56,-0.20,-0.02,1.11,0.84,1.64
7.57,-0.56,-0.20,-0.02,1.58,0.60,1.04
7.57,-0.59,-0.35,0.04,1.58,0.60,1.04
7.58,-0.59,-0.35,0.04,2.12,0.26,0.47
7.581,-0.61,-0.44,0.10,2.12,0.26,0.47
7.582,-0.61,-0.44,0.10,2.71,-0.06,0.08
7.583,-0.61,-0.47,0.15,2.71,-0.06,0.08
7.584,-0.59,-0.40,0.19,2.71,-0.06,0.08
7.585,-0.59,-0.40,0.19,3.25,-0.39,-0.16
7.588,-0.59,-0.40,0.19,3.65,-0.67,-0.26
7.589,-0.56,-0.26,0.21,3.65,-0.67,-0.26
7.593,-0.50,-0.08,0.21,3.65,-0.67,-0.26
7.595,-0.50,-0.08,0.21,3.75,-0.91,-0.38
7.599,-0.45,0.10,0.20,3.75,-0.91,-0.38
7.6,-0.45,0.10,0.20,3.63,-1.13,-0.61
7.604,-0.40,0.25,0.18,3.63,-1.13,-0.61
7.605,-0.40,0.25,0.18,3.20,-1.39,-0.81
7.609,-0.40,0.25,0.18,2.69,-1.61,-0.84
7.61,-0.35,0.36,0.16,2.69,-1.61,-0.84
7.613,-0.31,0.42,0.12,2.69,-1.61,-0.84
7.614,-0.31,0.42,0.12,2.16,-1.79,-0.72
7.618,-0.31,0.42,0.12,1.50,-1.81,-0.57
7.62,-0.27,0.45,0.10,1.50,-1.81,-0.57
7.624,-0.23,0.45,0.09,1.50,-1.81,-0.57
7.624,-0.23,0.45,0.09,0.95,-1.81,-0.53
7.629,-0.21,0.44,0.10,0.95,-1.81,-0.53
7.63,-0.21,0.44,0.10,0.53,-1.83,-0.71
7.635,-0.19,0.44,0.12,0.53,-1.83,-0.71
7.636,-0.19,0.44,0.12,0.25,-1.81,-0.94
7.639,-0.19,0.45,0.13,0.25,-1.81,-0.94
7.64,-0.19,0.45,0.13,0.06,-1.82,-1.05
7.644,-0.20,0.47,0.12,0.06,-1.82,-1.05
7.644,-0.20,0.47,0.12,-0.20,-1.73,-1.17
7.649,-0.20,0.47,0.12,-0.44,-1.60,-1.18
7.651,-0.22,0.49,0.09,-0.44,-1.60,-1.18
7.654,-0.24,0.51,0.05,-0.44,-1.60,-1.18
7.655,-0.24,0.51,0.05,-0.75,-1.35,-1.20
7.659,-0.26,0.51,0.01,-0.75,-1.35,-1.20
7.66,-0.26,0.51,0.01,-1.12,-1.06,-1.19
7.664,-0.26,0.51,0.01,-1.45,-0.67,-1.23
7.665,-0.28,0.48,-0.03,-1.45,-0.67,-1.23
7.669,-0.28,0.48,-0.03,-1.75,-0.19,-1.29
7.671,-0.31,0.43,-0.07,-1.75,-0.19,-1.29
7.674,-0.34,0.35,-0.11,-1.75,-0.19,-1.29
7.675,-0.34,0.35,-0.11,-2.05,0.19,-1.46
7.679,-0.37,0.27,-0.13,-2.05,0.19,-1.46
7.68,-0.37,0.27,-0.13,-2.23,0.66,-1.55
7.694,-0.40,0.19,-0.14,-2.23,0.66,-1.55
7.696,-0.40,0.19,-0.14,-2.28,1.05,-1.59
7.697,-0.40,0.19,-0.14,-2.17,1.33,-1.52
7.699,-0.42,0.11,-0.15,-2.17,1.33,-1.52
7.7,-0.43,0.04,-0.15,-2.17,1.33,-1.52
7.702,-0.43,0.04,-0.15,-1.92,1.59,-1.37
7.704,-0.43,0.04,-0.15,-1.64,1.87,-1.27
7.705,-0.42,-0.03,-0.15,-1.64,1.87,-1.27
7.706,-0.40,-0.09,-0.15,-1.64,1.87,-1.27
7.707,-0.40,-0.09,-0.15,-1.36,2.01,-1.16
7.719,-0.39,-0.13,-0.13,-1.36,2.01,-1.16
7.721,-0.39,-0.13,-0.13,-1.05,2.12,-1.14
7.722,-0.39,-0.13,-0.13,-0.72,2.10,-1.11
7.723,-0.37,-0.17,-0.11,-0.72,2.10,-1.11
7.724,-0.35,-0.20,-0.07,-0.72,2.10,-1.11
7.725,-0.35,-0.20,-0.07,-0.30,2.05,-1.13
7.726,-0.35,-0.20,-0.07,0.06,1.95,-1.16
7.727,-0.33,-0.21,-0.04,0.06,1.95,-1.16
