
time,ax,ay,az,wx,wy,wz
0.005,0.14,0.03,0.20,0.14,-0.05,-0.02
0.005,0.14,0.03,0.20,0.14,-0.04,-0.03
0.005,0.14,0.03,0.20,0.14,-0.03,-0.03
0.005,0.14,0.00,0.10,0.14,-0.03,-0.03
0.006,0.14,0.00,0.10,0.14,-0.02,-0.03
0.006,0.14,0.00,0.10,0.14,-0.01,-0.03
0.006,0.13,-0.02,0.02,0.14,-0.01,-0.03
0.006,0.13,-0.02,0.02,0.14,0.00,-0.04
0.006,0.13,-0.02,0.02,0.13,0.02,-0.04
0.006,0.13,-0.02,0.02,0.13,0.03,-0.04
0.007,0.15,-0.03,-0.09,0.13,0.03,-0.04
0.007,0.15,-0.03,-0.09,0.12,0.05,-0.05
0.007,0.17,-0.10,-0.24,0.12,0.05,-0.05
0.007,0.17,-0.10,-0.24,0.11,0.07,-0.05
0.007,0.17,-0.10,-0.24,0.10,0.07,-0.05
0.007,0.10,-0.15,-0.39,0.10,0.07,-0.05
0.007,0.10,-0.15,-0.39,0.09,0.08,-0.05
0.008,0.10,-0.15,-0.39,0.08,0.09,-0.05
0.008,0.18,-0.12,-0.50,0.08,0.09,-0.05
0.008,0.18,-0.12,-0.50,0.07,0.09,-0.05
0.008,0.18,-0.12,-0.50,0.06,0.10,-0.05
0.008,0.25,-0.11,-0.58,0.06,0.10,-0.05
0.008,0.25,-0.11,-0.58,0.05,0.11,-0.05
0.009,0.25,-0.11,-0.58,0.04,0.11,-0.06
0.009,0.25,-0.11,-0.58,0.02,0.11,-0.06
0.009,0.30,-0.12,-0.68,0.02,0.11,-0.06
0.009,0.30,-0.12,-0.68,0.01,0.11,-0.06
0.009,0.33,-0.11,-0.75,0.01,0.11,-0.06
0.009,0.33,-0.11,-0.75,-0.01,0.11,-0.07
0.011,0.33,-0.11,-0.75,-0.02,0.11,-0.07
0.012,0.32,-0.13,-0.82,-0.02,0.11,-0.07
0.012,0.32,-0.13,-0.82,-0.04,0.10,-0.07
0.014,0.32,-0.13,-0.82,-0.05,0.10,-0.07
0.016,0.30,-0.13,-0.86,-0.05,0.10,-0.07
0.016,0.30,-0.13,-0.86,-0.07,0.10,-0.08
0.018,0.30,-0.13,-0.86,-0.08,0.10,-0.08
0.02,0.30,-0.13,-0.86,-0.10,0.09,-0.08
0.02,0.22,-0.13,-0.88,-0.10,0.09,-0.08
0.022,0.22,-0.13,-0.88,-0.11,0.09,-0.08
0.024,0.22,-0.13,-0.88,-0.13,0.08,-0.08
0.024,0.16,-0.13,-0.86,-0.13,0.08,-0.08
0.026,0.16,-0.13,-0.86,-0.14,0.08,-0.07
0.028,0.10,-0.10,-0.83,-0.14,0.08,-0.07
0.028,0.10,-0.10,-0.83,-0.16,0.08,-0.07
0.03,0.10,-0.10,-0.83,-0.17,0.07,-0.07
0.033,0.04,-0.08,-0.78,-0.17,0.07,-0.07
0.034,0.04,-0.08,-0.78,-0.18,0.07,-0.06
0.034,0.04,-0.08,-0.78,-0.19,0.06,-0.06
0.036,0.04,-0.08,-0.78,-0.20,0.06,-0.05
0.037,-0.02,-0.06,-0.73,-0.20,0.06,-0.05
0.038,-0.02,-0.06,-0.73,-0.22,0.05,-0.04
0.04,-0.06,-0.04,-0.64,-0.22,0.05,-0.04
0.04,-0.06,-0.04,-0.64,-0.22,0.05,-0.04
0.042,-0.06,-0.04,-0.64,-0.23,0.05,-0.03
0.044,-0.06,-0.04,-0.64,-0.24,0.05,-0.02
0.044,-0.11,-0.02,-0.56,-0.24,0.05,-0.02
0.046,-0.11,-0.02,-0.56,-0.25,0.04,-0.01
0.049,-0.11,-0.02,-0.56,-0.25,0.04,-0.01
0.049,-0.13,0.01,-0.46,-0.25,0.04,-0.01
0.05,-0.13,0.01,-0.46,-0.26,0.04,-0.00
0.052,-0.13,0.01,-0.46,-0.27,0.03,0.01
0.053,-0.15,0.02,-0.34,-0.27,0.03,0.01
0.054,-0.15,0.02,-0.34,-0.27,0.03,0.01
0.056,-0.20,0.03,-0.24,-0.27,0.03,0.01
0.056,-0.20,0.03,-0.24,-0.27,0.04,0.02
0.058,-0.20,0.03,-0.24,-0.28,0.05,0.03
0.06,-0.27,0.01,-0.20,-0.28,0.05,0.03
0.06,-0.27,0.01,-0.20,-0.29,0.06,0.03
0.061,-0.27,0.01,-0.20,-0.30,0.07,0.03
0.064,-0.27,0.01,-0.20,-0.30,0.07,0.04
0.064,-0.28,-0.10,-0.21,-0.30,0.07,0.04
0.075,-0.28,-0.10,-0.21,-0.31,0.07,0.04
0.076,-0.28,-0.10,-0.21,-0.31,0.07,0.04
0.076,-0.28,-0.03,-0.11,-0.31,0.07,0.04
0.077,-0.28,-0.03,-0.11,-0.32,0.07,0.04
0.077,-0.26,0.03,-0.04,-0.32,0.07,0.04
0.077,-0.26,0.03,-0.04,-0.32,0.07,0.05
0.077,-0.26,0.03,-0.04,-0.32,0.07,0.05
0.078,-0.23,0.09,-0.01,-0.32,0.07,0.05
0.078,-0.23,0.09,-0.01,-0.32,0.07,0.05
0.078,-0.23,0.09,-0.01,-0.32,0.07,0.05
0.08,-0.20,0.12,0.04,-0.32,0.07,0.05
0.08,-0.20,0.12,0.04,-0.32,0.06,0.05
0.082,-0.20,0.12,0.04,-0.32,0.06,0.05
0.084,-0.18,0.11,0.09,-0.32,0.06,0.05
0.085,-0.18,0.11,0.09,-0.31,0.05,0.05
0.086,-0.18,0.11,0.09,-0.31,0.05,0.05
0.088,-0.15,0.12,0.16,-0.31,0.05,0.05
0.088,-0.15,0.12,0.16,-0.31,0.05,0.05
0.09,-0.15,0.12,0.16,-0.30,0.05,0.05
0.092,-0.15,0.12,0.16,-0.30,0.05,0.05
0.092,-0.14,0.10,0.22,-0.30,0.05,0.05
0.094,-0.14,0.10,0.22,-0.29,0.05,0.06
0.096,-0.12,0.07,0.25,-0.29,0.05,0.06
0.096,-0.12,0.07,0.25,-0.29,0.06,0.06
0.099,-0.12,0.07,0.25,-0.28,0.05,0.06
0.1,-0.07,0.04,0.30,-0.28,0.05,0.06
0.1,-0.07,0.04,0.30,-0.27,0.06,0.06
0.102,-0.07,0.04,0.30,-0.27,0.06,0.06
0.104,-0.03,0.01,0.30,-0.27,0.06,0.06
0.104,-0.03,0.01,0.30,-0.26,0.06,0.06
0.105,-0.03,0.01,0.30,-0.25,0.07,0.05
0.108,0.05,0.01,0.31,-0.25,0.07,0.05
0.108,0.05,0.01,0.31,-0.25,0.07,0.05
0.109,0.05,0.01,0.31,-0.24,0.08,0.05
0.112,0.11,-0.00,0.30,-0.24,0.08,0.05
0.112,0.11,-0.00,0.30,-0.23,0.08,0.04
0.113,0.11,-0.00,0.30,-0.22,0.08,0.04
0.121,0.15,-0.02,0.28,-0.22,0.08,0.04
0.121,0.15,-0.02,0.28,-0.22,0.09,0.04
0.121,0.15,-0.02,0.28,-0.21,0.09,0.03
0.122,0.16,-0.01,0.28,-0.21,0.09,0.03
0.122,0.16,-0.01,0.28,-0.20,0.09,0.03
0.122,0.16,-0.01,0.28,-0.20,0.10,0.02
0.124,0.16,-0.01,0.28,-0.19,0.10,0.02
0.124,0.16,-0.03,0.29,-0.19,0.10,0.02
0.125,0.16,-0.03,0.29,-0.18,0.10,0.01
0.127,0.16,-0.03,0.29,-0.17,0.10,0.01
0.128,0.16,-0.01,0.29,-0.17,0.10,0.01
0.137,0.16,-0.01,0.29,-0.17,0.11,-0.00
0.138,0.15,-0.02,0.31,-0.17,0.11,-0.00
0.138,0.15,-0.02,0.31,-0.16,0.11,-0.00
0.138,0.15,-0.02,0.31,-0.15,0.11,-0.01
0.138,0.15,-0.02,0.31,-0.14,0.11,-0.01
0.138,0.13,-0.03,0.32,-0.14,0.11,-0.01
0.139,0.13,-0.03,0.32,-0.13,0.11,-0.02
0.139,0.10,-0.03,0.33,-0.13,0.11,-0.02
0.14,0.10,-0.03,0.33,-0.13,0.11,-0.02
0.141,0.10,-0.03,0.33,-0.12,0.11,-0.03
0.144,0.10,-0.03,0.33,-0.11,0.11,-0.03
0.144,0.09,-0.04,0.33,-0.11,0.11,-0.03
0.145,0.09,-0.04,0.33,-0.10,0.11,-0.03
0.158,0.07,-0.03,0.32,-0.10,0.11,-0.03
0.159,0.07,-0.03,0.32,-0.09,0.11,-0.04
0.159,0.07,-0.03,0.32,-0.08,0.11,-0.04
0.16,0.06,-0.02,0.33,-0.08,0.11,-0.04
0.16,0.06,-0.02,0.33,-0.08,0.11,-0.04
0.16,0.06,-0.02,0.33,-0.07,0.11,-0.04
0.161,0.05,-0.01,0.30,-0.07,0.11,-0.04
0.161,0.05,-0.01,0.30,-0.06,0.11,-0.04
0.161,0.05,-0.01,0.30,-0.05,0.11,-0.04
0.162,0.02,-0.02,0.27,-0.05,0.11,-0.04
0.162,0.02,-0.02,0.27,-0.05,0.12,-0.04
0.162,0.02,-0.02,0.27,-0.04,0.12,-0.04
0.164,-0.01,-0.03,0.23,-0.04,0.12,-0.04
0.164,-0.01,-0.03,0.23,-0.04,0.12,-0.04
0.166,-0.01,-0.03,0.23,-0.04,0.13,-0.04
0.168,-0.01,-0.03,0.23,-0.03,0.13,-0.04
0.168,-0.04,-0.01,0.17,-0.03,0.13,-0.04
0.17,-0.04,-0.01,0.17,-0.02,0.13,-0.04
0.171,-0.07,-0.01,0.15,-0.02,0.13,-0.04
0.172,-0.07,-0.01,0.15,-0.02,0.14,-0.04
0.173,-0.07,-0.01,0.15,-0.02,0.14,-0.03
0.175,-0.09,-0.01,0.12,-0.02,0.14,-0.03
0.176,-0.09,-0.01,0.12,-0.02,0.15,-0.03
0.177,-0.09,-0.01,0.12,-0.02,0.15,-0.02
0.179,-0.12,-0.01,0.09,-0.02,0.15,-0.02
0.18,-0.12,-0.01,0.09,-0.02,0.16,-0.02
0.182,-0.12,-0.01,0.09,-0.02,0.17,-0.02
0.184,-0.16,-0.01,0.06,-0.02,0.17,-0.02
0.184,-0.16,-0.01,0.06,-0.01,0.17,-0.01
0.185,-0.16,-0.01,0.06,-0.01,0.17,-0.01
0.187,-0.16,0.01,0.02,-0.01,0.17,-0.01
0.188,-0.16,0.01,0.02,-0.02,0.18,-0.00
0.189,-0.16,0.01,0.02,-0.02,0.17,0.00
0.191,-0.16,0.03,-0.01,-0.02,0.17,0.00
0.192,-0.16,0.03,-0.01,-0.02,0.17,0.01
0.193,-0.16,0.03,-0.01,-0.02,0.17,0.01
0.195,-0.17,0.03,-0.03,-0.02,0.17,0.01
0.196,-0.17,0.03,-0.03,-0.02,0.17,0.02
0.197,-0.17,0.03,-0.03,-0.03,0.17,0.02
0.199,-0.23,0.04,-0.07,-0.03,0.17,0.02
0.2,-0.23,0.04,-0.07,-0.03,0.17,0.03
0.201,-0.23,0.04,-0.07,-0.03,0.17,0.04
0.204,-0.23,0.04,-0.07,-0.04,0.17,0.05
0.204,-0.23,0.05,-0.09,-0.04,0.17,0.05
0.205,-0.23,0.05,-0.09,-0.04,0.17,0.05
0.207,-0.23,0.05,-0.09,-0.05,0.16,0.06
0.207,-0.23,0.04,-0.14,-0.05,0.16,0.06
0.209,-0.23,0.04,-0.14,-0.06,0.16,0.06
0.211,-0.23,0.04,-0.14,-0.06,0.15,0.07
0.212,-0.22,0.04,-0.18,-0.06,0.15,0.07
0.213,-0.22,0.04,-0.18,-0.07,0.15,0.08
0.216,-0.22,0.04,-0.18,-0.08,0.14,0.08
0.216,-0.21,0.05,-0.21,-0.08,0.14,0.08
0.217,-0.21,0.05,-0.21,-0.08,0.14,0.09
0.22,-0.21,0.05,-0.21,-0.09,0.13,0.10
0.22,-0.20,0.02,-0.25,-0.09,0.13,0.10
0.221,-0.20,0.02,-0.25,-0.10,0.13,0.10
0.224,-0.20,0.02,-0.25,-0.11,0.12,0.10
0.226,-0.17,0.02,-0.28,-0.11,0.12,0.10
0.226,-0.17,0.02,-0.28,-0.11,0.11,0.11
0.227,-0.17,0.02,-0.28,-0.12,0.11,0.11
0.228,-0.12,0.03,-0.29,-0.12,0.11,0.11
0.23,-0.12,0.03,-0.29,-0.13,0.11,0.11
0.232,-0.12,0.03,-0.29,-0.14,0.10,0.11
0.233,-0.09,0.03,-0.28,-0.14,0.10,0.11
0.233,-0.09,0.03,-0.28,-0.15,0.09,0.11
0.236,-0.09,0.03,-0.28,-0.16,0.09,0.11
0.236,-0.06,0.04,-0.28,-0.16,0.09,0.11
0.237,-0.06,0.04,-0.28,-0.17,0.09,0.11
0.239,-0.06,0.04,-0.28,-0.17,0.08,0.11
0.24,-0.04,0.03,-0.25,-0.17,0.08,0.11
0.241,-0.04,0.03,-0.25,-0.18,0.08,0.11
0.244,-0.04,0.03,-0.25,-0.19,0.08,0.11
0.244,-0.01,0.00,-0.24,-0.19,0.08,0.11
0.245,-0.01,0.00,-0.24,-0.19,0.08,0.11
0.249,-0.01,0.00,-0.24,-0.20,0.07,0.11
0.249,-0.03,-0.01,-0.22,-0.20,0.07,0.11
0.25,-0.03,-0.01,-0.22,-0.21,0.07,0.11
0.251,-0.03,-0.01,-0.22,-0.21,0.07,0.11
0.252,-0.02,-0.02,-0.20,-0.21,0.07,0.11
0.253,-0.02,-0.02,-0.20,-0.22,0.06,0.10
0.256,-0.02,-0.02,-0.20,-0.22,0.06,0.10
0.256,-0.03,-0.03,-0.20,-0.22,0.06,0.10
0.257,-0.03,-0.03,-0.20,-0.23,0.05,0.10
0.259,-0.03,-0.03,-0.20,-0.23,0.05,0.10
0.26,-0.01,-0.01,-0.16,-0.23,0.05,0.10
0.261,-0.01,-0.01,-0.16,-0.23,0.05,0.09
0.263,-0.01,-0.01,-0.16,-0.24,0.04,0.09
0.264,-0.04,-0.03,-0.14,-0.24,0.04,0.09
0.275,-0.04,-0.03,-0.14,-0.24,0.04,0.09
0.276,-0.04,-0.03,-0.14,-0.24,0.04,0.09
0.276,-0.05,-0.02,-0.11,-0.24,0.04,0.09
0.277,-0.05,-0.02,-0.11,-0.24,0.04,0.09
0.277,-0.05,-0.02,-0.11,-0.24,0.04,0.09
0.277,-0.07,-0.03,-0.06,-0.24,0.04,0.09
0.277,-0.07,-0.03,-0.06,-0.24,0.05,0.09
0.278,-0.07,-0.03,-0.06,-0.24,0.04,0.08
0.278,-0.08,-0.03,-0.03,-0.24,0.04,0.08
0.278,-0.08,-0.03,-0.03,-0.24,0.05,0.08
0.279,-0.08,-0.03,-0.03,-0.24,0.05,0.09
0.279,-0.08,-0.03,0.01,-0.24,0.05,0.09
0.282,-0.08,-0.03,0.01,-0.24,0.05,0.09
0.284,-0.08,-0.03,0.01,-0.24,0.06,0.09
0.284,-0.08,-0.02,0.05,-0.24,0.06,0.09
0.285,-0.08,-0.02,0.05,-0.24,0.06,0.09
0.288,-0.08,-0.02,0.05,-0.24,0.07,0.09
0.289,-0.07,-0.02,0.05,-0.24,0.07,0.09
0.289,-0.07,-0.02,0.05,-0.23,0.07,0.09
0.291,-0.07,-0.02,0.05,-0.23,0.08,0.09
0.292,-0.05,0.00,0.08,-0.23,0.08,0.09
0.293,-0.05,0.00,0.08,-0.23,0.08,0.09
0.295,-0.05,0.00,0.08,-0.23,0.08,0.09
0.295,-0.05,-0.01,0.08,-0.23,0.08,0.09
0.297,-0.05,-0.01,0.08,-0.22,0.09,0.09
0.299,-0.05,-0.01,0.08,-0.22,0.09,0.10
0.3,-0.04,0.02,0.10,-0.22,0.09,0.10
0.301,-0.04,0.02,0.10,-0.22,0.10,0.10
0.303,-0.04,0.02,0.10,-0.21,0.10,0.10
0.304,-0.03,-0.00,0.13,-0.21,0.10,0.10
0.305,-0.03,-0.00,0.13,-0.20,0.10,0.10
0.307,-0.03,-0.00,0.13,-0.20,0.10,0.10
0.307,-0.02,-0.00,0.14,-0.20,0.10,0.10
0.309,-0.02,-0.00,0.14,-0.20,0.10,0.10
0.311,-0.02,-0.00,0.14,-0.19,0.10,0.10
0.311,0.01,0.01,0.16,-0.19,0.10,0.10
0.313,0.01,0.01,0.16,-0.19,0.10,0.10
0.315,0.01,0.01,0.16,-0.18,0.10,0.10
0.316,0.06,-0.00,0.20,-0.18,0.10,0.10
0.317,0.06,-0.00,0.20,-0.17,0.10,0.11
0.319,0.06,-0.00,0.20,-0.17,0.10,0.10
0.32,0.07,-0.03,0.20,-0.17,0.10,0.10
0.321,0.07,-0.03,0.20,-0.16,0.10,0.10
0.323,0.10,-0.05,0.22,-0.16,0.10,0.10
0.324,0.10,-0.05,0.22,-0.16,0.10,0.10
0.325,0.10,-0.05,0.22,-0.15,0.10,0.10
0.327,0.10,-0.05,0.22,-0.15,0.10,0.10
0.327,0.12,-0.05,0.22,-0.15,0.10,0.10
0.329,0.12,-0.05,0.22,-0.14,0.10,0.10
0.332,0.12,-0.05,0.22,-0.14,0.10,0.10
0.332,0.14,-0.08,0.21,-0.14,0.10,0.10
0.333,0.14,-0.08,0.21,-0.14,0.09,0.09
0.335,0.14,-0.08,0.21,-0.13,0.09,0.09
0.335,0.15,-0.08,0.20,-0.13,0.09,0.09
0.337,0.15,-0.08,0.20,-0.13,0.08,0.09
0.339,0.15,-0.08,0.20,-0.12,0.08,0.09
0.339,0.16,-0.09,0.18,-0.12,0.08,0.09
0.341,0.16,-0.09,0.18,-0.12,0.07,0.08
0.343,0.16,-0.09,0.18,-0.12,0.07,0.08
0.343,0.15,-0.10,0.16,-0.12,0.07,0.08
0.345,0.15,-0.10,0.16,-0.12,0.07,0.08
0.347,0.15,-0.10,0.16,-0.11,0.07,0.08
0.347,0.13,-0.09,0.13,-0.11,0.07,0.08
0.349,0.13,-0.09,0.13,-0.11,0.07,0.08
0.351,0.13,-0.09,0.13,-0.11,0.06,0.07
0.351,0.08,-0.06,0.09,-0.11,0.06,0.07
0.353,0.08,-0.06,0.09,-0.11,0.06,0.07
0.355,0.08,-0.06,0.09,-0.11,0.06,0.07
0.355,0.05,-0.06,0.04,-0.11,0.06,0.07
0.358,0.05,-0.06,0.04,-0.11,0.06,0.07
0.359,0.05,-0.06,0.04,-0.12,0.06,0.07
0.359,0.01,-0.04,-0.01,-0.12,0.06,0.07
0.361,0.01,-0.04,-0.01,-0.12,0.06,0.07
0.363,0.01,-0.04,-0.01,-0.12,0.06,0.07
0.364,-0.02,-0.04,-0.03,-0.12,0.06,0.07
0.372,-0.02,-0.04,-0.03,-0.13,0.07,0.07
0.373,-0.02,-0.04,-0.03,-0.13,0.07,0.07
0.373,-0.07,-0.02,-0.05,-0.13,0.07,0.07
0.373,-0.07,-0.02,-0.05,-0.14,0.07,0.07
0.374,-0.07,-0.02,-0.05,-0.14,0.07,0.08
0.374,-0.09,-0.01,-0.07,-0.14,0.07,0.08
0.374,-0.09,-0.01,-0.07,-0.14,0.07,0.08
0.375,-0.09,-0.01,-0.07,-0.14,0.07,0.08
0.375,-0.11,0.03,-0.08,-0.14,0.07,0.08
0.377,-0.11,0.03,-0.08,-0.15,0.07,0.08
0.379,-0.11,0.03,-0.08,-0.15,0.07,0.09
0.379,-0.15,0.05,-0.10,-0.15,0.07,0.09
0.381,-0.15,0.05,-0.10,-0.16,0.07,0.09
0.383,-0.15,0.05,-0.10,-0.16,0.08,0.09
0.384,-0.16,0.06,-0.10,-0.16,0.08,0.09
0.385,-0.16,0.06,-0.10,-0.17,0.08,0.10
0.387,-0.16,0.06,-0.10,-0.17,0.08,0.10
0.387,-0.18,0.07,-0.10,-0.17,0.08,0.10
0.388,-0.18,0.07,-0.10,-0.17,0.08,0.10
0.391,-0.18,0.07,-0.10,-0.17,0.08,0.11
0.391,-0.16,0.06,-0.08,-0.17,0.08,0.11
0.392,-0.16,0.06,-0.08,-0.18,0.09,0.11
0.395,-0.16,0.06,-0.08,-0.18,0.10,0.11
0.395,-0.12,0.09,-0.08,-0.18,0.10,0.11
0.397,-0.12,0.09,-0.08,-0.19,0.10,0.11
0.399,-0.12,0.09,-0.08,-0.19,0.11,0.12
0.399,-0.06,0.10,-0.05,-0.19,0.11,0.12
0.4,-0.06,0.10,-0.05,-0.19,0.12,0.12
0.403,-0.06,0.10,-0.05,-0.19,0.13,0.12
0.403,-0.04,0.10,-0.01,-0.19,0.13,0.12
0.404,-0.04,0.10,-0.01,-0.19,0.13,0.12
0.407,-0.04,0.10,-0.01,-0.19,0.13,0.12
0.407,-0.06,0.09,0.02,-0.19,0.13,0.12
0.408,-0.06,0.09,0.02,-0.19,0.13,0.13
0.411,-0.06,0.09,0.02,-0.19,0.13,0.13
0.411,-0.07,0.07,0.04,-0.19,0.13,0.13
0.412,-0.07,0.07,0.04,-0.19,0.13,0.13
0.415,-0.07,0.07,0.04,-0.19,0.13,0.13
0.416,-0.11,0.06,0.07,-0.19,0.13,0.13
0.417,-0.11,0.06,0.07,-0.19,0.13,0.14
0.419,-0.11,0.06,0.07,-0.19,0.12,0.14
0.419,-0.13,0.06,0.07,-0.19,0.12,0.14
0.42,-0.13,0.06,0.07,-0.19,0.12,0.14
0.423,-0.13,0.06,0.07,-0.19,0.12,0.14
0.423,-0.12,0.04,0.10,-0.19,0.12,0.14
0.424,-0.12,0.04,0.10,-0.18,0.11,0.14
0.427,-0.12,0.04,0.10,-0.18,0.11,0.15
0.427,-0.10,0.06,0.12,-0.18,0.11,0.15
0.428,-0.10,0.06,0.12,-0.18,0.11,0.15
0.431,-0.10,0.06,0.12,-0.18,0.10,0.15
0.431,-0.10,0.06,0.12,-0.18,0.10,0.15
0.433,-0.10,0.06,0.12,-0.17,0.10,0.15
0.435,-0.10,0.06,0.12,-0.17,0.10,0.15
0.435,-0.10,0.07,0.11,-0.17,0.10,0.15
0.436,-0.10,0.07,0.11,-0.17,0.09,0.16
0.439,-0.10,0.07,0.11,-0.17,0.09,0.16
0.439,-0.12,0.05,0.11,-0.17,0.09,0.16
0.44,-0.12,0.05,0.11,-0.17,0.09,0.16
0.443,-0.12,0.05,0.11,-0.16,0.08,0.17
0.443,-0.13,0.05,0.11,-0.16,0.08,0.17
0.444,-0.13,0.05,0.11,-0.16,0.08,0.17
0.447,-0.13,0.05,0.11,-0.16,0.08,0.17
0.447,-0.13,0.04,0.11,-0.16,0.08,0.17
0.449,-0.13,0.04,0.11,-0.16,0.08,0.17
0.451,-0.13,0.04,0.11,-0.15,0.07,0.18
0.451,-0.13,0.06,0.11,-0.15,0.07,0.18
0.452,-0.13,0.06,0.11,-0.15,0.07,0.18
0.455,-0.13,0.06,0.11,-0.15,0.07,0.18
0.455,-0.12,0.05,0.11,-0.15,0.07,0.18
0.456,-0.12,0.05,0.11,-0.14,0.07,0.19
0.458,-0.12,0.05,0.11,-0.14,0.07,0.19
0.459,-0.10,0.05,0.11,-0.14,0.07,0.19
0.46,-0.10,0.05,0.11,-0.14,0.07,0.19
0.463,-0.10,0.05,0.11,-0.13,0.07,0.19
0.463,-0.08,0.06,0.12,-0.13,0.07,0.19
0.472,-0.08,0.06,0.12,-0.13,0.07,0.20
0.473,-0.08,0.06,0.12,-0.13,0.07,0.20
0.473,-0.07,0.05,0.14,-0.13,0.07,0.20
0.473,-0.07,0.05,0.14,-0.12,0.07,0.20
0.474,-0.07,0.05,0.14,-0.12,0.07,0.20
0.474,-0.08,0.07,0.14,-0.12,0.07,0.20
0.474,-0.08,0.07,0.14,-0.11,0.07,0.20
0.475,-0.08,0.07,0.14,-0.11,0.07,0.20
0.475,-0.08,0.06,0.14,-0.11,0.07,0.20
0.476,-0.08,0.06,0.14,-0.10,0.06,0.21
0.479,-0.08,0.06,0.14,-0.10,0.06,0.21
0.479,-0.06,0.06,0.15,-0.10,0.06,0.21
0.48,-0.06,0.06,0.15,-0.10,0.06,0.21
0.483,-0.06,0.06,0.15,-0.09,0.06,0.21
0.484,-0.07,0.06,0.17,-0.09,0.06,0.21
0.484,-0.07,0.06,0.17,-0.09,0.05,0.21
0.487,-0.07,0.06,0.17,-0.08,0.05,0.22
0.487,-0.06,0.06,0.18,-0.08,0.05,0.22
0.488,-0.06,0.06,0.18,-0.08,0.06,0.22
0.491,-0.06,0.06,0.18,-0.08,0.05,0.22
0.491,-0.07,0.04,0.19,-0.08,0.05,0.22
0.492,-0.07,0.04,0.19,-0.07,0.05,0.23
0.494,-0.07,0.04,0.19,-0.07,0.05,0.22
0.495,-0.08,0.03,0.21,-0.07,0.05,0.22
0.496,-0.08,0.03,0.21,-0.07,0.05,0.23
0.498,-0.08,0.03,0.21,-0.07,0.05,0.23
0.499,-0.07,0.03,0.19,-0.07,0.05,0.23
0.5,-0.07,0.03,0.19,-0.06,0.05,0.23
0.503,-0.07,0.03,0.19,-0.06,0.05,0.24
0.503,-0.09,0.02,0.18,-0.06,0.05,0.24
0.504,-0.09,0.02,0.18,-0.06,0.05,0.24
0.506,-0.09,0.02,0.18,-0.06,0.04,0.24
0.507,-0.09,0.03,0.14,-0.06,0.04,0.24
0.508,-0.09,0.03,0.14,-0.06,0.04,0.24
0.51,-0.09,0.03,0.14,-0.06,0.04,0.24
0.511,-0.08,0.00,0.12,-0.06,0.04,0.24
0.512,-0.08,0.00,0.12,-0.06,0.04,0.25
0.515,-0.08,0.00,0.12,-0.06,0.04,0.24
0.516,-0.05,0.00,0.11,-0.06,0.04,0.24
0.517,-0.05,0.00,0.11,-0.06,0.04,0.24
0.519,-0.05,0.00,0.11,-0.06,0.04,0.24
0.519,-0.04,-0.01,0.10,-0.06,0.04,0.24
0.52,-0.04,-0.01,0.10,-0.06,0.04,0.24
0.522,-0.04,-0.01,0.10,-0.06,0.04,0.25
0.523,-0.02,-0.00,0.08,-0.06,0.04,0.25
0.524,-0.02,-0.00,0.08,-0.06,0.04,0.24
0.526,-0.02,-0.00,0.08,-0.06,0.04,0.25
0.527,-0.01,-0.00,0.05,-0.06,0.04,0.25
0.528,-0.01,-0.00,0.05,-0.06,0.05,0.24
0.53,-0.01,-0.00,0.05,-0.07,0.05,0.24
0.531,-0.00,-0.00,0.04,-0.07,0.05,0.24
0.532,-0.00,-0.00,0.04,-0.07,0.05,0.25
0.534,-0.00,-0.00,0.04,-0.07,0.05,0.24
0.535,-0.00,-0.01,0.02,-0.07,0.05,0.24
0.536,-0.00,-0.01,0.02,-0.07,0.06,0.24
0.538,-0.00,-0.01,0.02,-0.07,0.06,0.24
0.539,0.01,-0.01,-0.00,-0.07,0.06,0.24
0.54,0.01,-0.01,-0.00,-0.08,0.06,0.24
0.542,0.01,-0.01,-0.00,-0.07,0.06,0.24
0.543,0.01,-0.01,-0.01,-0.07,0.06,0.24
0.544,0.01,-0.01,-0.01,-0.07,0.06,0.24
0.546,0.01,-0.01,-0.01,-0.08,0.06,0.24
0.547,0.03,-0.01,-0.03,-0.08,0.06,0.24
0.549,0.03,-0.01,-0.03,-0.08,0.06,0.24
0.55,0.03,-0.01,-0.03,-0.08,0.06,0.24
0.551,0.04,-0.02,-0.03,-0.08,0.06,0.24
0.552,0.04,-0.02,-0.03,-0.08,0.06,0.24
0.554,0.04,-0.02,-0.03,-0.08,0.06,0.24
0.555,0.05,-0.01,-0.04,-0.08,0.06,0.24
0.556,0.05,-0.01,-0.04,-0.08,0.06,0.24
0.558,0.05,-0.01,-0.04,-0.08,0.06,0.24
0.559,0.07,-0.02,-0.04,-0.08,0.06,0.24
0.56,0.07,-0.02,-0.04,-0.08,0.06,0.24
0.562,0.07,-0.02,-0.04,-0.08,0.06,0.24
0.563,0.10,-0.02,-0.05,-0.08,0.06,0.24
0.564,0.10,-0.02,-0.05,-0.08,0.05,0.23
0.572,0.10,-0.02,-0.05,-0.08,0.06,0.23
0.573,0.13,-0.01,-0.05,-0.08,0.06,0.23
0.573,0.13,-0.01,-0.05,-0.08,0.05,0.23
0.573,0.13,-0.01,-0.05,-0.09,0.05,0.23
0.574,0.15,-0.01,-0.06,-0.09,0.05,0.23
0.574,0.15,-0.01,-0.06,-0.08,0.05,0.23
0.574,0.15,-0.01,-0.06,-0.08,0.05,0.22
0.575,0.19,-0.01,-0.06,-0.08,0.05,0.22
0.576,0.19,-0.01,-0.06,-0.08,0.05,0.23
0.578,0.19,-0.01,-0.06,-0.08,0.05,0.22
0.579,0.20,-0.01,-0.07,-0.08,0.05,0.22
0.58,0.20,-0.01,-0.07,-0.08,0.05,0.22
0.583,0.20,-0.01,-0.07,-0.08,0.05,0.22
0.584,0.19,-0.01,-0.06,-0.08,0.05,0.22
0.584,0.19,-0.01,-0.06,-0.08,0.05,0.22
0.587,0.19,-0.01,-0.06,-0.07,0.05,0.21
0.587,0.20,-0.00,-0.08,-0.07,0.05,0.21
0.588,0.20,-0.00,-0.08,-0.08,0.05,0.21
0.59,0.20,-0.00,-0.08,-0.07,0.05,0.21
0.59,0.20,0.01,-0.09,-0.07,0.05,0.21
0.592,0.20,0.01,-0.09,-0.07,0.05,0.21
0.594,0.20,0.01,-0.09,-0.07,0.05,0.21
0.594,0.19,0.01,-0.11,-0.07,0.05,0.21
0.596,0.19,0.01,-0.11,-0.07,0.05,0.21
0.599,0.19,0.01,-0.11,-0.07,0.05,0.21
0.599,0.18,-0.01,-0.12,-0.07,0.05,0.21
0.6,0.18,-0.01,-0.12,-0.07,0.06,0.21
0.603,0.18,-0.01,-0.12,-0.07,0.07,0.21
0.603,0.18,0.01,-0.14,-0.07,0.07,0.21
0.604,0.18,0.01,-0.14,-0.07,0.07,0.21
0.606,0.18,0.01,-0.14,-0.06,0.08,0.21
0.606,0.17,0.00,-0.15,-0.06,0.08,0.21
0.608,0.17,0.00,-0.15,-0.06,0.09,0.21
0.61,0.17,0.00,-0.15,-0.06,0.09,0.21
0.61,0.16,0.01,-0.16,-0.06,0.09,0.21
0.612,0.16,0.01,-0.16,-0.06,0.11,0.21
0.614,0.16,0.01,-0.16,-0.06,0.11,0.21
0.615,0.16,0.01,-0.16,-0.06,0.11,0.21
0.616,0.16,0.01,-0.16,-0.06,0.12,0.21
0.618,0.16,0.01,-0.16,-0.06,0.13,0.21
0.619,0.16,0.01,-0.16,-0.06,0.13,0.21
0.62,0.16,0.01,-0.16,-0.06,0.14,0.21
0.622,0.16,0.01,-0.16,-0.05,0.15,0.22
0.625,0.14,0.02,-0.16,-0.05,0.15,0.22
0.625,0.14,0.02,-0.16,-0.05,0.16,0.22
0.626,0.14,0.02,-0.16,-0.05,0.18,0.22
0.626,0.11,0.02,-0.15,-0.05,0.18,0.22
0.628,0.11,0.02,-0.15,-0.05,0.19,0.23
0.63,0.11,0.02,-0.15,-0.04,0.20,0.23
0.631,0.10,0.04,-0.13,-0.04,0.20,0.23
0.632,0.10,0.04,-0.13,-0.04,0.21,0.23
0.634,0.10,0.04,-0.13,-0.04,0.22,0.24
0.635,0.05,0.06,-0.13,-0.04,0.22,0.24
0.636,0.05,0.06,-0.13,-0.04,0.22,0.24
0.638,0.05,0.06,-0.13,-0.04,0.23,0.25
0.638,-0.01,0.08,-0.14,-0.04,0.23,0.25
0.64,-0.01,0.08,-0.14,-0.03,0.23,0.25
0.642,-0.01,0.08,-0.14,-0.03,0.24,0.26
0.642,-0.08,0.10,-0.12,-0.03,0.24,0.26
0.644,-0.08,0.10,-0.12,-0.03,0.25,0.27
0.646,-0.08,0.10,-0.12,-0.03,0.25,0.28
0.646,-0.13,0.10,-0.10,-0.03,0.25,0.28
0.649,-0.13,0.10,-0.10,-0.02,0.26,0.29
0.65,-0.13,0.10,-0.10,-0.02,0.27,0.30
0.65,-0.18,0.10,-0.07,-0.02,0.27,0.30
0.651,-0.18,0.10,-0.07,-0.01,0.28,0.31
0.654,-0.18,0.10,-0.07,-0.01,0.29,0.32
0.654,-0.19,0.11,-0.02,-0.01,0.29,0.32
0.655,-0.19,0.11,-0.02,-0.00,0.30,0.33
0.658,-0.19,0.11,-0.02,0.00,0.30,0.34
0.658,-0.18,0.11,-0.01,0.00,0.30,0.34
0.659,-0.18,0.11,-0.01,0.01,0.31,0.35
0.662,-0.18,0.11,-0.01,0.01,0.32,0.36
0.662,-0.13,0.13,0.03,0.01,0.32,0.36
0.664,-0.13,0.13,0.03,0.02,0.33,0.38
0.672,-0.13,0.13,0.03,0.03,0.34,0.39
0.673,-0.09,0.14,0.07,0.03,0.34,0.39
0.673,-0.09,0.14,0.07,0.04,0.35,0.40
0.673,-0.09,0.14,0.07,0.04,0.36,0.41
0.674,-0.07,0.14,0.07,0.04,0.36,0.41
0.674,-0.07,0.14,0.07,0.05,0.37,0.42
0.674,-0.07,0.14,0.07,0.06,0.39,0.43
0.675,-0.00,0.16,0.01,0.06,0.39,0.43
0.676,-0.00,0.16,0.01,0.07,0.41,0.44
0.678,-0.00,0.16,0.01,0.08,0.43,0.45
0.678,0.13,0.23,0.03,0.08,0.43,0.45
0.68,0.13,0.23,0.03,0.09,0.46,0.46
0.684,0.13,0.23,0.03,0.09,0.49,0.47
0.685,0.11,0.22,0.03,0.09,0.49,0.47
0.685,0.11,0.22,0.03,0.10,0.51,0.48
0.686,0.11,0.22,0.03,0.11,0.54,0.49
0.687,0.04,0.19,0.02,0.11,0.54,0.49
0.688,0.04,0.19,0.02,0.12,0.56,0.51
0.69,0.04,0.19,0.02,0.12,0.58,0.52
0.69,0.04,0.16,-0.00,0.12,0.58,0.52
0.692,0.04,0.16,-0.00,0.13,0.60,0.54
0.694,0.04,0.16,-0.00,0.14,0.62,0.55
0.694,-0.01,0.14,-0.02,0.14,0.62,0.55
0.695,-0.01,0.14,-0.02,0.15,0.64,0.57
0.699,-0.01,0.14,-0.02,0.15,0.66,0.59
0.7,-0.02,0.10,-0.04,0.15,0.66,0.59
0.7,-0.02,0.10,-0.04,0.16,0.68,0.60
0.702,-0.02,0.10,-0.04,0.17,0.70,0.62
0.703,-0.02,0.07,-0.07,0.17,0.70,0.62
0.704,-0.02,0.07,-0.07,0.17,0.73,0.63
0.706,-0.02,0.07,-0.07,0.18,0.75,0.65
0.706,-0.02,0.06,-0.08,0.18,0.75,0.65
0.707,-0.02,0.06,-0.08,0.19,0.77,0.66
0.71,-0.02,0.06,-0.08,0.19,0.79,0.67
0.71,-0.01,0.05,-0.08,0.19,0.79,0.67
0.711,-0.01,0.05,-0.08,0.20,0.82,0.69
0.714,-0.01,0.05,-0.08,0.21,0.83,0.70
0.714,0.02,0.06,-0.09,0.21,0.83,0.70
0.716,0.02,0.06,-0.09,0.22,0.86,0.71
0.718,0.02,0.06,-0.09,0.23,0.88,0.72
0.718,0.03,0.05,-0.09,0.23,0.88,0.72
0.72,0.03,0.05,-0.09,0.23,0.90,0.73
0.722,0.03,0.05,-0.09,0.24,0.92,0.74
0.722,0.06,0.03,-0.09,0.24,0.92,0.74
0.723,0.06,0.03,-0.09,0.25,0.94,0.75
0.726,0.06,0.03,-0.09,0.26,0.97,0.76
0.726,0.07,0.01,-0.10,0.26,0.97,0.76
0.727,0.07,0.01,-0.10,0.26,0.98,0.77
0.73,0.07,0.01,-0.10,0.27,1.01,0.78
0.73,0.12,-0.02,-0.07,0.27,1.01,0.78
0.732,0.12,-0.02,-0.07,0.28,1.02,0.78
0.734,0.12,-0.02,-0.07,0.28,1.04,0.79
0.734,0.16,-0.04,-0.07,0.28,1.04,0.79
0.735,0.16,-0.04,-0.07,0.29,1.06,0.80
0.738,0.16,-0.04,-0.07,0.29,1.08,0.80
0.738,0.21,-0.06,-0.09,0.29,1.08,0.80
0.739,0.21,-0.06,-0.09,0.30,1.09,0.80
0.742,0.21,-0.06,-0.09,0.30,1.11,0.80
0.742,0.24,-0.06,-0.11,0.30,1.11,0.80
0.743,0.24,-0.06,-0.11,0.31,1.13,0.81
0.746,0.24,-0.06,-0.11,0.31,1.14,0.80
0.746,0.29,-0.06,-0.10,0.31,1.14,0.80
0.747,0.29,-0.06,-0.10,0.32,1.16,0.80
0.75,0.29,-0.06,-0.10,0.32,1.17,0.80
0.75,0.32,-0.06,-0.08,0.32,1.17,0.80
0.751,0.32,-0.06,-0.08,0.33,1.19,0.80
0.754,0.32,-0.06,-0.08,0.33,1.20,0.80
0.754,0.36,-0.07,-0.08,0.33,1.20,0.80
0.757,0.36,-0.07,-0.08,0.33,1.22,0.79
0.758,0.36,-0.07,-0.08,0.33,1.23,0.79
0.758,0.40,-0.11,-0.09,0.33,1.23,0.79
0.759,0.40,-0.11,-0.09,0.34,1.23,0.78
0.761,0.40,-0.11,-0.09,0.34,1.24,0.77
0.762,0.42,-0.14,-0.08,0.34,1.24,0.77
0.763,0.42,-0.14,-0.08,0.34,1.24,0.76
0.771,0.42,-0.14,-0.08,0.34,1.23,0.76
0.772,0.41,-0.16,-0.05,0.34,1.23,0.76
0.772,0.41,-0.16,-0.05,0.34,1.22,0.75
0.772,0.41,-0.16,-0.05,0.34,1.20,0.73
0.773,0.41,-0.19,0.01,0.34,1.20,0.73
0.773,0.41,-0.19,0.01,0.34,1.19,0.72
0.773,0.41,-0.19,0.01,0.34,1.16,0.71
0.774,0.39,-0.23,0.07,0.34,1.16,0.71
0.775,0.39,-0.23,0.07,0.34,1.14,0.70
0.778,0.39,-0.23,0.07,0.34,1.12,0.69
0.778,0.37,-0.27,0.11,0.34,1.12,0.69
0.779,0.37,-0.27,0.11,0.35,1.09,0.67
0.782,0.37,-0.27,0.11,0.34,1.07,0.66
0.783,0.39,-0.31,0.13,0.34,1.07,0.66
0.783,0.39,-0.31,0.13,0.34,1.06,0.65
0.786,0.39,-0.31,0.13,0.34,1.04,0.64
0.786,0.38,-0.32,0.13,0.34,1.04,0.64
0.787,0.38,-0.32,0.13,0.34,1.02,0.62
0.789,0.38,-0.32,0.13,0.33,1.01,0.61
0.79,0.38,-0.35,0.13,0.33,1.01,0.61
0.791,0.38,-0.35,0.13,0.33,1.00,0.60
0.793,0.38,-0.35,0.13,0.33,0.99,0.58
0.794,0.38,-0.35,0.13,0.33,0.99,0.58
0.795,0.38,-0.35,0.13,0.32,0.98,0.57
0.799,0.38,-0.35,0.13,0.32,0.97,0.56
0.8,0.37,-0.34,0.13,0.32,0.97,0.56
0.8,0.37,-0.34,0.13,0.32,0.97,0.54
0.802,0.37,-0.34,0.13,0.31,0.97,0.53
0.802,0.36,-0.32,0.12,0.31,0.97,0.53
0.804,0.36,-0.32,0.12,0.30,0.96,0.52
0.806,0.36,-0.32,0.12,0.30,0.96,0.51
0.806,0.32,-0.31,0.10,0.30,0.96,0.51
0.807,0.32,-0.31,0.10,0.29,0.97,0.50
0.809,0.32,-0.31,0.10,0.29,0.96,0.49
0.81,0.26,-0.25,0.05,0.29,0.96,0.49
0.811,0.26,-0.25,0.05,0.28,0.96,0.48
0.813,0.26,-0.25,0.05,0.27,0.96,0.47
0.814,0.22,-0.22,0.01,0.27,0.96,0.47
0.815,0.22,-0.22,0.01,0.27,0.96,0.47
0.818,0.22,-0.22,0.01,0.26,0.97,0.46
0.818,0.16,-0.20,-0.02,0.26,0.97,0.46
0.819,0.16,-0.20,-0.02,0.25,0.97,0.45
0.822,0.16,-0.20,-0.02,0.24,0.97,0.45
0.822,0.12,-0.20,-0.03,0.24,0.97,0.45
0.823,0.12,-0.20,-0.03,0.24,0.97,0.45
0.825,0.12,-0.20,-0.03,0.23,0.97,0.44
0.826,0.08,-0.16,-0.09,0.23,0.97,0.44
0.827,0.08,-0.16,-0.09,0.22,0.98,0.44
0.829,0.08,-0.16,-0.09,0.21,0.98,0.43
0.83,0.05,-0.15,-0.14,0.21,0.98,0.43
0.832,0.05,-0.15,-0.14,0.20,0.99,0.44
0.833,0.05,-0.15,-0.14,0.20,1.00,0.43
0.834,0.05,-0.14,-0.14,0.20,1.00,0.43
0.835,0.05,-0.14,-0.14,0.19,1.01,0.43
0.837,0.05,-0.14,-0.14,0.18,1.02,0.43
0.838,0.05,-0.10,-0.13,0.18,1.02,0.43
0.839,0.05,-0.10,-0.13,0.17,1.03,0.43
0.841,0.05,-0.10,-0.13,0.17,1.04,0.42
0.842,0.05,-0.13,-0.15,0.17,1.04,0.42
0.843,0.05,-0.13,-0.15,0.16,1.05,0.42
0.845,0.05,-0.13,-0.15,0.15,1.07,0.42
0.846,0.05,-0.13,-0.15,0.15,1.07,0.42
0.847,0.05,-0.13,-0.15,0.14,1.08,0.42
0.849,0.05,-0.13,-0.15,0.13,1.09,0.42
0.85,0.06,-0.14,-0.15,0.13,1.09,0.42
0.851,0.06,-0.14,-0.15,0.13,1.10,0.41
0.854,0.06,-0.14,-0.15,0.12,1.12,0.41
0.854,0.10,-0.14,-0.09,0.12,1.12,0.41
0.855,0.10,-0.14,-0.09,0.12,1.13,0.41
0.857,0.10,-0.14,-0.09,0.11,1.15,0.40
0.858,0.12,-0.14,-0.03,0.11,1.15,0.40
0.859,0.12,-0.14,-0.03,0.11,1.16,0.40
0.861,0.12,-0.14,-0.03,0.10,1.17,0.39
0.862,0.15,-0.14,0.06,0.10,1.17,0.39
0.863,0.15,-0.14,0.06,0.10,1.18,0.39
0.872,0.15,-0.14,0.06,0.09,1.19,0.38
0.873,0.19,-0.14,0.03,0.09,1.19,0.38
0.873,0.19,-0.14,0.03,0.09,1.19,0.38
0.873,0.19,-0.14,0.03,0.09,1.20,0.37
0.874,0.24,-0.11,0.06,0.09,1.20,0.37
0.874,0.24,-0.11,0.06,0.09,1.20,0.36
0.874,0.24,-0.11,0.06,0.08,1.20,0.36
0.875,0.27,-0.12,0.10,0.08,1.20,0.36
0.875,0.27,-0.12,0.10,0.08,1.20,0.35
0.877,0.27,-0.12,0.10,0.08,1.20,0.34
0.878,0.35,-0.14,0.10,0.08,1.20,0.34
0.879,0.35,-0.14,0.10,0.08,1.20,0.33
0.883,0.35,-0.14,0.10,0.08,1.21,0.33
0.884,0.45,-0.12,0.14,0.08,1.21,0.33
0.884,0.45,-0.12,0.14,0.08,1.22,0.32
0.885,0.45,-0.12,0.14,0.08,1.23,0.31
0.885,0.53,-0.09,0.21,0.08,1.23,0.31
0.887,0.53,-0.09,0.21,0.09,1.24,0.29
0.889,0.53,-0.09,0.21,0.09,1.25,0.28
0.889,0.53,-0.11,0.26,0.09,1.25,0.28
0.891,0.53,-0.11,0.26,0.09,1.26,0.27
0.893,0.53,-0.11,0.26,0.10,1.27,0.27
0.893,0.56,-0.14,0.29,0.10,1.27,0.27
0.895,0.56,-0.14,0.29,0.10,1.28,0.25
0.897,0.56,-0.14,0.29,0.10,1.28,0.24
0.897,0.56,-0.15,0.28,0.10,1.28,0.24
0.899,0.56,-0.15,0.28,0.10,1.28,0.23
0.901,0.56,-0.15,0.28,0.11,1.29,0.22
0.902,0.65,-0.12,0.30,0.11,1.29,0.22
0.903,0.65,-0.12,0.30,0.11,1.29,0.21
0.905,0.65,-0.12,0.30,0.12,1.30,0.20
0.906,0.61,-0.20,0.31,0.12,1.30,0.20
0.907,0.61,-0.20,0.31,0.12,1.30,0.19
0.909,0.61,-0.20,0.31,0.12,1.30,0.18
0.909,0.56,-0.21,0.29,0.12,1.30,0.18
0.911,0.56,-0.21,0.29,0.13,1.30,0.17
0.913,0.56,-0.21,0.29,0.13,1.31,0.16
0.914,0.53,-0.24,0.27,0.13,1.31,0.16
0.916,0.53,-0.24,0.27,0.13,1.30,0.15
0.918,0.53,-0.24,0.27,0.14,1.30,0.14
0.918,0.50,-0.28,0.23,0.14,1.30,0.14
0.919,0.50,-0.28,0.23,0.14,1.30,0.13
0.921,0.50,-0.28,0.23,0.14,1.30,0.12
0.922,0.46,-0.31,0.19,0.14,1.30,0.12
0.923,0.46,-0.31,0.19,0.15,1.30,0.11
0.925,0.46,-0.31,0.19,0.15,1.30,0.11
0.925,0.40,-0.34,0.17,0.15,1.30,0.11
0.927,0.40,-0.34,0.17,0.15,1.30,0.10
0.929,0.40,-0.34,0.17,0.16,1.29,0.09
0.929,0.30,-0.35,0.13,0.16,1.29,0.09
0.931,0.30,-0.35,0.13,0.16,1.30,0.08
0.933,0.30,-0.35,0.13,0.16,1.30,0.08
0.934,0.19,-0.33,0.06,0.16,1.30,0.08
0.935,0.19,-0.33,0.06,0.16,1.30,0.08
0.937,0.19,-0.33,0.06,0.17,1.31,0.08
0.938,0.10,-0.28,0.01,0.17,1.31,0.08
0.939,0.10,-0.28,0.01,0.17,1.31,0.08
0.941,0.10,-0.28,0.01,0.16,1.31,0.08
0.941,0.01,-0.22,-0.05,0.16,1.31,0.08
0.943,0.01,-0.22,-0.05,0.16,1.31,0.08
0.945,0.01,-0.22,-0.05,0.16,1.32,0.08
0.945,-0.01,-0.18,-0.10,0.16,1.32,0.08
0.947,-0.01,-0.18,-0.10,0.16,1.32,0.08
0.955,-0.01,-0.18,-0.10,0.16,1.33,0.09
0.956,0.00,-0.16,-0.09,0.16,1.33,0.09
0.956,0.00,-0.16,-0.09,0.16,1.34,0.09
0.957,0.00,-0.16,-0.09,0.16,1.35,0.09
0.957,0.03,-0.13,-0.07,0.16,1.35,0.09
0.957,0.03,-0.13,-0.07,0.16,1.37,0.10
0.958,0.03,-0.13,-0.07,0.16,1.38,0.10
0.958,0.03,-0.11,-0.03,0.16,1.38,0.10
0.959,0.03,-0.11,-0.03,0.16,1.40,0.10
0.961,0.03,-0.11,-0.03,0.16,1.42,0.11
0.962,0.02,-0.06,0.02,0.16,1.42,0.11
0.963,0.02,-0.06,0.02,0.16,1.44,0.11
0.966,0.02,-0.06,0.02,0.17,1.46,0.11
0.967,0.01,0.00,0.10,0.17,1.46,0.11
0.967,0.01,0.00,0.10,0.17,1.48,0.12
0.969,0.01,0.00,0.10,0.18,1.50,0.13
0.969,-0.01,0.06,0.20,0.18,1.50,0.13
0.971,-0.01,0.06,0.20,0.18,1.52,0.13
0.973,-0.01,0.06,0.20,0.19,1.55,0.14
0.974,-0.03,0.13,0.31,0.19,1.55,0.14
0.975,-0.03,0.13,0.31,0.20,1.57,0.15
0.977,-0.03,0.13,0.31,0.21,1.59,0.16
0.977,-0.05,0.17,0.44,0.21,1.59,0.16
0.979,-0.05,0.17,0.44,0.22,1.62,0.17
0.982,-0.05,0.17,0.44,0.24,1.65,0.18
0.983,-0.07,0.23,0.55,0.24,1.65,0.18
0.983,-0.07,0.23,0.55,0.25,1.68,0.19
0.985,-0.07,0.23,0.55,0.27,1.71,0.20
0.985,-0.03,0.26,0.66,0.27,1.71,0.20
0.987,-0.03,0.26,0.66,0.28,1.75,0.21
0.989,-0.03,0.26,0.66,0.30,1.78,0.22
0.989,0.02,0.25,0.79,0.30,1.78,0.22
0.991,0.02,0.25,0.79,0.32,1.82,0.23
0.993,0.02,0.25,0.79,0.35,1.86,0.23
0.993,0.15,0.26,0.92,0.35,1.86,0.23
0.994,0.15,0.26,0.92,0.37,1.89,0.24
0.997,0.15,0.26,0.92,0.40,1.91,0.23
0.997,0.28,0.29,1.06,0.40,1.91,0.23
0.999,0.28,0.29,1.06,0.43,1.94,0.23
1.001,0.28,0.29,1.06,0.46,1.97,0.22
1.002,0.95,0.63,1.14,0.46,1.97,0.22
1.003,0.95,0.63,1.14,0.49,2.01,0.21
1.005,0.95,0.63,1.14,0.52,2.04,0.19
1.005,0.95,0.53,1.27,0.52,2.04,0.19
1.006,0.95,0.53,1.27,0.55,2.07,0.18
1.009,0.95,0.53,1.27,0.58,2.10,0.17
1.009,0.99,0.38,1.34,0.58,2.10,0.17
1.01,0.99,0.38,1.34,0.61,2.13,0.15
1.013,0.99,0.38,1.34,0.64,2.15,0.13
1.013,1.03,0.20,1.32,0.64,2.15,0.13
1.015,1.03,0.20,1.32,0.67,2.18,0.12
1.017,1.03,0.20,1.32,0.69,2.20,0.10
1.017,1.01,0.05,1.25,0.69,2.20,0.10
1.02,1.01,0.05,1.25,0.72,2.23,0.08
1.021,1.01,0.05,1.25,0.74,2.25,0.07
1.023,1.03,-0.12,1.19,0.74,2.25,0.07
1.024,1.03,-0.12,1.19,0.76,2.27,0.05
1.025,1.03,-0.12,1.19,0.78,2.29,0.03
1.025,1.03,-0.26,1.12,0.78,2.29,0.03
1.026,1.03,-0.26,1.12,0.80,2.31,0.01
1.029,1.03,-0.26,1.12,0.82,2.33,-0.00
1.029,0.97,-0.38,0.99,0.82,2.33,-0.00
1.03,0.97,-0.38,0.99,0.83,2.34,-0.02
1.033,0.97,-0.38,0.99,0.84,2.36,-0.04
1.034,0.89,-0.47,0.88,0.84,2.36,-0.04
1.034,0.89,-0.47,0.88,0.85,2.38,-0.05
1.037,0.89,-0.47,0.88,0.86,2.40,-0.07
1.037,0.77,-0.55,0.76,0.86,2.40,-0.07
1.038,0.77,-0.55,0.76,0.87,2.42,-0.08
1.041,0.77,-0.55,0.76,0.87,2.44,-0.09
1.041,0.65,-0.59,0.66,0.87,2.44,-0.09
1.042,0.65,-0.59,0.66,0.87,2.47,-0.10
1.045,0.65,-0.59,0.66,0.87,2.49,-0.11
1.045,0.57,-0.63,0.60,0.87,2.49,-0.11
1.047,0.57,-0.63,0.60,0.87,2.51,-0.12
1.055,0.57,-0.63,0.60,0.86,2.54,-0.12
1.056,0.49,-0.61,0.54,0.86,2.54,-0.12
1.056,0.49,-0.61,0.54,0.86,2.57,-0.13
1.057,0.49,-0.61,0.54,0.85,2.60,-0.14
1.057,0.36,-0.60,0.47,0.85,2.60,-0.14
1.057,0.36,-0.60,0.47,0.84,2.64,-0.14
1.058,0.36,-0.60,0.47,0.83,2.68,-0.14
1.058,0.23,-0.56,0.38,0.83,2.68,-0.14
1.058,0.23,-0.56,0.38,0.82,2.71,-0.15
1.061,0.23,-0.56,0.38,0.80,2.76,-0.14
1.061,0.07,-0.50,0.27,0.80,2.76,-0.14
1.062,0.07,-0.50,0.27,0.78,2.80,-0.15
1.066,0.07,-0.50,0.27,0.76,2.84,-0.14
1.067,-0.10,-0.44,0.19,0.76,2.84,-0.14
1.067,-0.10,-0.44,0.19,0.74,2.88,-0.14
1.069,-0.10,-0.44,0.19,0.72,2.92,-0.14
1.069,-0.25,-0.41,0.08,0.72,2.92,-0.14
1.07,-0.25,-0.41,0.08,0.70,2.96,-0.13
1.073,-0.25,-0.41,0.08,0.67,3.00,-0.12
1.073,-0.33,-0.38,-0.02,0.67,3.00,-0.12
1.074,-0.33,-0.38,-0.02,0.65,3.03,-0.11
1.076,-0.33,-0.38,-0.02,0.62,3.07,-0.10
1.077,-0.41,-0.35,-0.09,0.62,3.07,-0.10
1.078,-0.41,-0.35,-0.09,0.60,3.10,-0.09
1.081,-0.41,-0.35,-0.09,0.57,3.13,-0.08
1.081,-0.44,-0.32,-0.11,0.57,3.13,-0.08
1.083,-0.44,-0.32,-0.11,0.55,3.16,-0.07
1.085,-0.44,-0.32,-0.11,0.52,3.19,-0.06
1.085,-0.49,-0.28,-0.12,0.52,3.19,-0.06
1.086,-0.49,-0.28,-0.12,0.50,3.21,-0.05
1.089,-0.49,-0.28,-0.12,0.48,3.24,-0.03
1.089,-0.52,-0.24,-0.08,0.48,3.24,-0.03
1.09,-0.52,-0.24,-0.08,0.46,3.26,-0.02
1.092,-0.52,-0.24,-0.08,0.44,3.28,-0.01
1.093,-0.55,-0.21,-0.03,0.44,3.28,-0.01
1.094,-0.55,-0.21,-0.03,0.41,3.30,0.00
1.097,-0.55,-0.21,-0.03,0.40,3.33,0.02
1.097,-0.60,-0.18,0.01,0.40,3.33,0.02
1.099,-0.60,-0.18,0.01,0.38,3.35,0.03
1.101,-0.60,-0.18,0.01,0.36,3.37,0.04
1.101,-0.61,-0.13,0.07,0.36,3.37,0.04
1.102,-0.61,-0.13,0.07,0.34,3.38,0.06
1.105,-0.61,-0.13,0.07,0.33,3.40,0.08
1.105,-0.62,-0.10,0.12,0.33,3.40,0.08
1.106,-0.62,-0.10,0.12,0.32,3.41,0.10
1.108,-0.62,-0.10,0.12,0.30,3.43,0.12
1.109,-0.62,-0.10,0.20,0.30,3.43,0.12
1.11,-0.62,-0.10,0.20,0.29,3.44,0.14
1.113,-0.62,-0.10,0.20,0.28,3.45,0.16
1.113,-0.63,-0.07,0.29,0.28,3.45,0.16
1.114,-0.63,-0.07,0.29,0.27,3.45,0.19
1.117,-0.63,-0.07,0.29,0.26,3.46,0.21
1.117,-0.72,-0.06,0.40,0.26,3.46,0.21
1.118,-0.72,-0.06,0.40,0.26,3.45,0.24
1.121,-0.72,-0.06,0.40,0.25,3.45,0.27
1.121,-0.87,-0.04,0.49,0.25,3.45,0.27
1.122,-0.87,-0.04,0.49,0.24,3.45,0.31
1.124,-0.87,-0.04,0.49,0.24,3.45,0.34
1.125,-1.04,-0.04,0.57,0.24,3.45,0.34
1.126,-1.04,-0.04,0.57,0.23,3.46,0.38
1.128,-1.04,-0.04,0.57,0.23,3.46,0.42
1.129,-1.14,-0.06,0.65,0.23,3.46,0.42
1.13,-1.14,-0.06,0.65,0.22,3.46,0.47
1.133,-1.14,-0.06,0.65,0.20,3.47,0.52
1.133,-1.19,-0.13,0.66,0.20,3.47,0.52
1.134,-1.19,-0.13,0.66,0.19,3.49,0.58
1.137,-1.19,-0.13,0.66,0.17,3.51,0.63
1.137,-1.26,-0.26,0.53,0.17,3.51,0.63
1.138,-1.26,-0.26,0.53,0.14,3.54,0.67
1.14,-1.26,-0.26,0.53,0.12,3.59,0.70
1.141,-1.00,-0.44,0.42,0.12,3.59,0.70
1.142,-1.00,-0.44,0.42,0.10,3.63,0.73
1.144,-1.00,-0.44,0.42,0.08,3.68,0.75
1.145,-0.53,-0.63,0.49,0.08,3.68,0.75
1.146,-0.53,-0.63,0.49,0.07,3.72,0.78
1.155,-0.53,-0.63,0.49,0.06,3.69,0.80
1.156,-0.08,-0.80,0.65,0.06,3.69,0.80
1.157,-0.08,-0.80,0.65,0.06,3.61,0.83
1.157,-0.08,-0.80,0.65,0.08,3.42,0.85
1.157,0.42,-1.19,0.32,0.08,3.42,0.85
1.161,0.42,-1.19,0.32,0.13,3.00,0.89
1.161,0.42,-1.19,0.32,0.20,2.42,0.91
1.161,1.38,-1.60,-1.08,0.20,2.42,0.91
1.162,1.38,-1.60,-1.08,0.29,1.85,0.91
1.162,1.38,-1.60,-1.08,0.37,1.40,0.89
1.163,3.60,-1.51,-4.67,0.37,1.40,0.89
1.163,3.60,-1.51,-4.67,0.46,1.06,0.83
1.168,3.60,-1.51,-4.67,0.54,0.79,0.77
1.169,3.90,-1.00,-5.20,0.54,0.79,0.77
1.169,3.90,-1.00,-5.20,0.62,0.57,0.68
1.169,3.90,-1.00,-5.20,0.69,0.42,0.58
1.169,4.28,-0.62,-4.60,0.69,0.42,0.58
1.17,4.28,-0.62,-4.60,0.76,0.30,0.47
1.172,4.28,-0.62,-4.60,0.81,0.18,0.35
1.173,4.16,-0.60,-3.65,0.81,0.18,0.35
1.174,4.16,-0.60,-3.65,0.86,0.09,0.23
1.176,4.16,-0.60,-3.65,0.88,0.04,0.11
1.177,3.80,-0.86,-2.28,0.88,0.04,0.11
1.178,3.80,-0.86,-2.28,0.90,0.03,0.01
1.181,3.80,-0.86,-2.28,0.89,0.06,-0.09
1.181,3.39,-1.15,-0.91,0.89,0.06,-0.09
1.183,3.39,-1.15,-0.91,0.87,0.13,-0.17
1.184,3.39,-1.15,-0.91,0.84,0.24,-0.24
1.185,2.85,-1.38,0.25,0.84,0.24,-0.24
1.186,2.85,-1.38,0.25,0.80,0.37,-0.29
1.189,2.85,-1.38,0.25,0.75,0.50,-0.33
1.189,2.29,-1.54,1.09,0.75,0.50,-0.33
1.19,2.29,-1.54,1.09,0.70,0.63,-0.35
1.192,2.29,-1.54,1.09,0.65,0.75,-0.36
1.192,1.63,-1.51,1.51,0.65,0.75,-0.36
1.194,1.63,-1.51,1.51,0.59,0.86,-0.37
1.196,1.63,-1.51,1.51,0.55,0.97,-0.37
1.197,0.95,-1.33,1.68,0.55,0.97,-0.37
1.199,0.95,-1.33,1.68,0.50,1.06,-0.37
1.201,0.95,-1.33,1.68,0.46,1.14,-0.36
1.201,0.40,-0.98,1.68,0.46,1.14,-0.36
1.202,0.40,-0.98,1.68,0.43,1.21,-0.34
1.204,0.40,-0.98,1.68,0.39,1.26,-0.32
1.205,0.02,-0.63,1.54,0.39,1.26,-0.32
1.206,0.02,-0.63,1.54,0.36,1.30,-0.30
1.208,0.02,-0.63,1.54,0.32,1.34,-0.26
1.208,-0.33,-0.31,1.21,0.32,1.34,-0.26
1.21,-0.33,-0.31,1.21,0.29,1.37,-0.23
1.212,-0.33,-0.31,1.21,0.26,1.41,-0.20
1.213,-0.65,-0.11,0.86,0.26,1.41,-0.20
1.214,-0.65,-0.11,0.86,0.22,1.44,-0.16
1.216,-0.65,-0.11,0.86,0.19,1.47,-0.12
1.217,-0.80,-0.02,0.69,0.19,1.47,-0.12
1.218,-0.80,-0.02,0.69,0.15,1.49,-0.08
1.22,-0.80,-0.02,0.69,0.11,1.49,-0.04
1.221,-0.79,-0.03,0.61,0.11,1.49,-0.04
1.222,-0.79,-0.03,0.61,0.07,1.46,0.01
1.224,-0.79,-0.03,0.61,0.03,1.41,0.07
1.224,-0.71,-0.21,0.55,0.03,1.41,0.07
1.226,-0.71,-0.21,0.55,-0.03,1.34,0.13
1.228,-0.71,-0.21,0.55,-0.09,1.25,0.20
1.228,-0.61,-0.52,0.34,-0.09,1.25,0.20
1.23,-0.61,-0.52,0.34,-0.16,1.15,0.27
1.232,-0.61,-0.52,0.34,-0.24,1.05,0.34
1.233,-0.65,-0.85,-0.08,-0.24,1.05,0.34
1.239,-0.65,-0.85,-0.08,-0.31,0.96,0.41
1.24,-0.65,-0.85,-0.08,-0.37,0.88,0.47
1.241,-0.59,-1.01,-0.32,-0.37,0.88,0.47
1.241,-0.59,-1.01,-0.32,-0.44,0.80,0.55
1.241,-0.59,-1.01,-0.32,-0.51,0.72,0.62
1.242,-0.46,-1.08,-0.18,-0.51,0.72,0.62
1.242,-0.46,-1.08,-0.18,-0.57,0.64,0.68
1.244,-0.46,-1.08,-0.18,-0.63,0.57,0.75
1.244,-0.41,-1.07,0.04,-0.63,0.57,0.75
1.246,-0.41,-1.07,0.04,-0.69,0.50,0.81
1.249,-0.41,-1.07,0.04,-0.75,0.44,0.86
1.25,-0.23,-1.07,0.24,-0.75,0.44,0.86
1.25,-0.23,-1.07,0.24,-0.80,0.39,0.93
1.253,-0.23,-1.07,0.24,-0.86,0.34,0.99
1.253,0.24,-1.15,0.41,-0.86,0.34,0.99
1.254,0.24,-1.15,0.41,-0.91,0.28,1.05
1.256,0.24,-1.15,0.41,-0.95,0.22,1.12
1.256,1.06,-1.26,0.50,-0.95,0.22,1.12
1.258,1.06,-1.26,0.50,-0.99,0.15,1.18
1.26,1.06,-1.26,0.50,-1.03,0.06,1.25
1.26,1.52,-1.44,0.73,-1.03,0.06,1.25
1.262,1.52,-1.44,0.73,-1.07,-0.02,1.32
1.264,1.52,-1.44,0.73,-1.10,-0.12,1.38
1.264,1.84,-1.61,1.00,-1.10,-0.12,1.38
1.273,1.84,-1.61,1.00,-1.13,-0.23,1.43
1.273,1.84,-1.61,1.00,-1.16,-0.34,1.48
1.274,2.28,-2.13,1.23,-1.16,-0.34,1.48
1.274,2.28,-2.13,1.23,-1.18,-0.45,1.53
1.274,2.28,-2.13,1.23,-1.20,-0.56,1.56
1.275,2.40,-2.27,1.44,-1.20,-0.56,1.56
1.275,2.40,-2.27,1.44,-1.22,-0.67,1.60
1.276,2.40,-2.27,1.44,-1.23,-0.78,1.63
1.277,2.14,-2.16,1.61,-1.23,-0.78,1.63
1.278,2.14,-2.16,1.61,-1.24,-0.89,1.65
1.28,2.14,-2.16,1.61,-1.25,-1.00,1.66
1.281,2.10,-2.21,1.76,-1.25,-1.00,1.66
1.284,2.10,-2.21,1.76,-1.26,-1.13,1.65
1.285,2.10,-2.21,1.76,-1.26,-1.23,1.62
1.285,2.88,-2.26,1.96,-1.26,-1.23,1.62
1.286,2.88,-2.26,1.96,-1.27,-1.32,1.60
1.288,2.88,-2.26,1.96,-1.27,-1.39,1.56
1.289,5.19,-2.18,2.71,-1.27,-1.39,1.56
1.29,5.19,-2.18,2.71,-1.28,-1.45,1.52
1.292,5.19,-2.18,2.71,-1.29,-1.49,1.48
1.292,5.01,-2.18,2.90,-1.29,-1.49,1.48
1.294,5.01,-2.18,2.90,-1.31,-1.53,1.44
1.296,5.01,-2.18,2.90,-1.33,-1.55,1.39
1.296,4.97,-2.16,2.87,-1.33,-1.55,1.39
1.298,4.97,-2.16,2.87,-1.35,-1.55,1.34
1.3,4.97,-2.16,2.87,-1.38,-1.54,1.28
1.301,4.96,-2.14,2.73,-1.38,-1.54,1.28
1.302,4.96,-2.14,2.73,-1.41,-1.51,1.22
1.304,4.96,-2.14,2.73,-1.44,-1.48,1.16
1.304,5.09,-2.15,2.60,-1.44,-1.48,1.16
1.305,5.09,-2.15,2.60,-1.47,-1.44,1.09
1.308,5.09,-2.15,2.60,-1.50,-1.40,1.02
1.308,5.25,-2.24,2.47,-1.50,-1.40,1.02
1.309,5.25,-2.24,2.47,-1.53,-1.35,0.94
1.312,5.25,-2.24,2.47,-1.56,-1.31,0.86
1.312,5.54,-2.41,2.33,-1.56,-1.31,0.86
1.313,5.54,-2.41,2.33,-1.59,-1.27,0.76
1.316,5.54,-2.41,2.33,-1.62,-1.23,0.67
1.317,6.09,-2.66,2.23,-1.62,-1.23,0.67
1.317,6.09,-2.66,2.23,-1.65,-1.20,0.56
1.32,6.09,-2.66,2.23,-1.66,-1.18,0.44
1.32,6.89,-3.00,2.15,-1.66,-1.18,0.44
1.321,6.89,-3.00,2.15,-1.69,-1.15,0.32
1.324,6.89,-3.00,2.15,-1.70,-1.12,0.19
1.324,7.80,-3.38,2.13,-1.70,-1.12,0.19
1.325,7.80,-3.38,2.13,-1.71,-1.10,0.05
1.328,7.80,-3.38,2.13,-1.72,-1.07,-0.09
1.328,8.70,-3.77,2.20,-1.72,-1.07,-0.09
1.329,8.70,-3.77,2.20,-1.72,-1.04,-0.24
1.332,8.70,-3.77,2.20,-1.72,-1.00,-0.38
1.333,9.38,-4.15,2.33,-1.72,-1.00,-0.38
1.333,9.38,-4.15,2.33,-1.72,-0.97,-0.53
1.336,9.38,-4.15,2.33,-1.70,-0.94,-0.68
1.336,9.79,-4.50,2.48,-1.70,-0.94,-0.68
1.337,9.79,-4.50,2.48,-1.69,-0.92,-0.83
1.34,9.79,-4.50,2.48,-1.68,-0.90,-0.97
1.34,9.93,-4.78,2.60,-1.68,-0.90,-0.97
1.341,9.93,-4.78,2.60,-1.66,-0.89,-1.11
1.344,9.93,-4.78,2.60,-1.65,-0.89,-1.24
1.344,9.82,-4.97,2.67,-1.65,-0.89,-1.24
1.345,9.82,-4.97,2.67,-1.64,-0.89,-1.37
1.348,9.82,-4.97,2.67,-1.62,-0.90,-1.48
1.348,9.51,-5.11,2.58,-1.62,-0.90,-1.48
1.349,9.51,-5.11,2.58,-1.61,-0.90,-1.59
1.352,9.51,-5.11,2.58,-1.60,-0.91,-1.68
1.352,9.10,-5.23,2.40,-1.60,-0.91,-1.68
1.353,9.10,-5.23,2.40,-1.59,-0.91,-1.77
1.356,9.10,-5.23,2.40,-1.59,-0.92,-1.85
1.356,8.58,-5.28,2.15,-1.59,-0.92,-1.85
1.357,8.58,-5.28,2.15,-1.59,-0.92,-1.92
1.36,8.58,-5.28,2.15,-1.60,-0.92,-1.97
1.36,7.98,-5.30,1.76,-1.60,-0.92,-1.97
1.361,7.98,-5.30,1.76,-1.61,-0.92,-2.03
1.364,7.98,-5.30,1.76,-1.63,-0.92,-2.07
1.364,7.32,-5.31,1.26,-1.63,-0.92,-2.07
1.372,7.32,-5.31,1.26,-1.66,-0.91,-2.10
1.373,7.32,-5.31,1.26,-1.68,-0.89,-2.13
1.373,6.64,-5.39,0.73,-1.68,-0.89,-2.13
1.374,6.64,-5.39,0.73,-1.72,-0.87,-2.15
1.374,6.64,-5.39,0.73,-1.76,-0.85,-2.16
1.374,5.95,-5.55,0.21,-1.76,-0.85,-2.16
1.374,5.95,-5.55,0.21,-1.80,-0.83,-2.17
1.376,5.95,-5.55,0.21,-1.85,-0.81,-2.18
1.376,5.25,-5.77,-0.34,-1.85,-0.81,-2.18
1.377,5.25,-5.77,-0.34,-1.89,-0.78,-2.18
1.38,5.25,-5.77,-0.34,-1.95,-0.75,-2.18
1.381,4.60,-6.08,-0.83,-1.95,-0.75,-2.18
1.383,4.60,-6.08,-0.83,-2.00,-0.73,-2.17
1.384,4.60,-6.08,-0.83,-2.06,-0.71,-2.17
1.385,3.99,-6.42,-1.26,-2.06,-0.71,-2.17
1.385,3.99,-6.42,-1.26,-2.11,-0.69,-2.16
1.388,3.99,-6.42,-1.26,-2.17,-0.68,-2.15
1.388,3.40,-6.78,-1.74,-2.17,-0.68,-2.15
1.389,3.40,-6.78,-1.74,-2.23,-0.68,-2.15
1.392,3.40,-6.78,-1.74,-2.29,-0.67,-2.13
1.392,2.89,-7.12,-2.26,-2.29,-0.67,-2.13
1.393,2.89,-7.12,-2.26,-2.35,-0.67,-2.12
1.396,2.89,-7.12,-2.26,-2.41,-0.66,-2.12
1.396,2.47,-7.45,-2.71,-2.41,-0.66,-2.12
1.397,2.47,-7.45,-2.71,-2.47,-0.65,-2.11
1.4,2.47,-7.45,-2.71,-2.54,-0.64,-2.10
1.401,2.06,-7.76,-3.04,-2.54,-0.64,-2.10
1.401,2.06,-7.76,-3.04,-2.60,-0.62,-2.09
1.404,2.06,-7.76,-3.04,-2.67,-0.60,-2.09
1.404,1.67,-8.06,-3.28,-2.67,-0.60,-2.09
1.405,1.67,-8.06,-3.28,-2.74,-0.57,-2.08
1.407,1.67,-8.06,-3.28,-2.81,-0.55,-2.08
1.408,1.40,-8.36,-3.47,-2.81,-0.55,-2.08
1.409,1.40,-8.36,-3.47,-2.89,-0.53,-2.09
1.411,1.40,-8.36,-3.47,-2.97,-0.51,-2.10
1.412,1.39,-8.64,-3.72,-2.97,-0.51,-2.10
1.413,1.39,-8.64,-3.72,-3.05,-0.49,-2.11
1.415,1.39,-8.64,-3.72,-3.13,-0.46,-2.14
1.416,1.66,-8.86,-4.02,-3.13,-0.46,-2.14
1.417,1.66,-8.86,-4.02,-3.21,-0.44,-2.17
1.42,1.66,-8.86,-4.02,-3.29,-0.41,-2.21
1.423,2.13,-9.03,-4.27,-3.29,-0.41,-2.21
1.423,2.13,-9.03,-4.27,-3.37,-0.37,-2.26
1.423,2.13,-9.03,-4.27,-3.46,-0.33,-2.30
1.424,2.62,-9.05,-4.45,-3.46,-0.33,-2.30
1.425,2.62,-9.05,-4.45,-3.54,-0.28,-2.36
1.427,2.62,-9.05,-4.45,-3.62,-0.24,-2.42
1.428,2.97,-8.99,-4.55,-3.62,-0.24,-2.42
1.429,2.97,-8.99,-4.55,-3.70,-0.19,-2.48
1.432,2.97,-8.99,-4.55,-3.78,-0.14,-2.54
1.433,3.12,-8.86,-4.67,-3.78,-0.14,-2.54
1.433,3.12,-8.86,-4.67,-3.86,-0.10,-2.61
1.435,3.12,-8.86,-4.67,-3.94,-0.07,-2.68
1.436,3.14,-8.75,-4.84,-3.94,-0.07,-2.68
1.437,3.14,-8.75,-4.84,-4.02,-0.04,-2.75
1.439,3.14,-8.75,-4.84,-4.11,-0.01,-2.83
1.44,3.16,-8.73,-5.05,-4.11,-0.01,-2.83
1.441,3.16,-8.73,-5.05,-4.20,0.02,-2.91
1.443,3.16,-8.73,-5.05,-4.28,0.04,-2.99
1.444,3.21,-8.74,-5.29,-4.28,0.04,-2.99
1.445,3.21,-8.74,-5.29,-4.37,0.06,-3.07
1.447,3.21,-8.74,-5.29,-4.45,0.07,-3.16
1.448,3.32,-8.77,-5.45,-4.45,0.07,-3.16
1.449,3.32,-8.77,-5.45,-4.53,0.09,-3.25
1.452,3.32,-8.77,-5.45,-4.61,0.09,-3.34
1.452,3.40,-8.74,-5.50,-4.61,0.09,-3.34
1.453,3.40,-8.74,-5.50,-4.68,0.09,-3.43
1.455,3.40,-8.74,-5.50,-4.75,0.08,-3.51
1.455,3.29,-8.64,-5.43,-4.75,0.08,-3.51
1.457,3.29,-8.64,-5.43,-4.82,0.06,-3.60
1.459,3.29,-8.64,-5.43,-4.88,0.05,-3.68
1.46,2.93,-8.46,-5.28,-4.88,0.05,-3.68
1.461,2.93,-8.46,-5.28,-4.93,0.05,-3.75
1.463,2.93,-8.46,-5.28,-4.98,0.05,-3.81
1.464,2.25,-8.26,-5.01,-4.98,0.05,-3.81
1.471,2.25,-8.26,-5.01,-5.03,0.06,-3.87
1.472,2.25,-8.26,-5.01,-5.07,0.07,-3.91
1.473,1.29,-8.06,-4.58,-5.07,0.07,-3.91
1.473,1.29,-8.06,-4.58,-5.11,0.08,-3.95
1.473,1.29,-8.06,-4.58,-5.14,0.09,-3.98
1.474,0.15,-7.86,-4.08,-5.14,0.09,-3.98
1.474,0.15,-7.86,-4.08,-5.16,0.08,-4.00
1.475,0.15,-7.86,-4.08,-5.18,0.07,-4.02
1.476,-1.16,-7.58,-3.57,-5.18,0.07,-4.02
1.477,-1.16,-7.58,-3.57,-5.19,0.06,-4.02
1.479,-1.16,-7.58,-3.57,-5.19,0.04,-4.01
1.48,-2.52,-7.17,-3.21,-5.19,0.04,-4.01
1.481,-2.52,-7.17,-3.21,-5.19,0.03,-3.99
1.483,-2.52,-7.17,-3.21,-5.19,0.03,-3.97
1.484,-3.87,-6.79,-2.86,-5.19,0.03,-3.97
1.485,-3.87,-6.79,-2.86,-5.18,0.03,-3.93
1.487,-3.87,-6.79,-2.86,-5.17,0.03,-3.89
1.488,-5.20,-6.46,-2.55,-5.17,0.03,-3.89
1.489,-5.20,-6.46,-2.55,-5.16,0.04,-3.84
1.491,-5.20,-6.46,-2.55,-5.14,0.06,-3.79
1.492,-6.44,-6.19,-2.34,-5.14,0.06,-3.79
1.493,-6.44,-6.19,-2.34,-5.12,0.09,-3.73
1.495,-6.44,-6.19,-2.34,-5.09,0.11,-3.67
1.495,-7.44,-5.94,-2.19,-5.09,0.11,-3.67
1.497,-7.44,-5.94,-2.19,-5.07,0.14,-3.60
1.499,-7.44,-5.94,-2.19,-5.04,0.17,-3.54
1.5,-8.29,-5.64,-2.10,-5.04,0.17,-3.54
1.501,-8.29,-5.64,-2.10,-5.01,0.21,-3.47
1.503,-8.29,-5.64,-2.10,-4.98,0.24,-3.41
1.504,-8.96,-5.34,-2.05,-4.98,0.24,-3.41
1.505,-8.96,-5.34,-2.05,-4.95,0.29,-3.35
1.507,-8.96,-5.34,-2.05,-4.92,0.33,-3.28
1.507,-9.48,-5.02,-1.99,-4.92,0.33,-3.28
1.509,-9.48,-5.02,-1.99,-4.90,0.39,-3.22
1.511,-9.48,-5.02,-1.99,-4.87,0.45,-3.16
1.511,-9.94,-4.70,-1.89,-4.87,0.45,-3.16
1.513,-9.94,-4.70,-1.89,-4.84,0.51,-3.09
1.515,-9.94,-4.70,-1.89,-4.82,0.58,-3.04
1.516,-10.33,-4.40,-1.87,-4.82,0.58,-3.04
1.517,-10.33,-4.40,-1.87,-4.80,0.65,-2.99
1.519,-10.33,-4.40,-1.87,-4.78,0.72,-2.94
1.52,-10.60,-4.07,-1.89,-4.78,0.72,-2.94
1.521,-10.60,-4.07,-1.89,-4.77,0.79,-2.89
1.523,-10.60,-4.07,-1.89,-4.75,0.86,-2.85
1.523,-10.77,-3.78,-1.90,-4.75,0.86,-2.85
1.525,-10.77,-3.78,-1.90,-4.74,0.94,-2.82
1.527,-10.77,-3.78,-1.90,-4.73,1.03,-2.79
1.527,-10.83,-3.47,-1.86,-4.73,1.03,-2.79
1.529,-10.83,-3.47,-1.86,-4.73,1.11,-2.76
1.531,-10.83,-3.47,-1.86,-4.72,1.20,-2.74
1.531,-10.86,-3.19,-1.78,-4.72,1.20,-2.74
1.533,-10.86,-3.19,-1.78,-4.72,1.29,-2.72
1.535,-10.86,-3.19,-1.78,-4.72,1.37,-2.70
1.536,-11.00,-2.95,-1.65,-4.72,1.37,-2.70
1.537,-11.00,-2.95,-1.65,-4.72,1.46,-2.69
1.539,-11.00,-2.95,-1.65,-4.72,1.53,-2.68
1.54,-11.29,-2.71,-1.50,-4.72,1.53,-2.68
1.541,-11.29,-2.71,-1.50,-4.72,1.59,-2.67
1.543,-11.29,-2.71,-1.50,-4.72,1.64,-2.66
1.543,-11.67,-2.40,-1.36,-4.72,1.64,-2.66
1.545,-11.67,-2.40,-1.36,-4.73,1.68,-2.65
1.547,-11.67,-2.40,-1.36,-4.73,1.71,-2.64
1.548,-12.06,-2.02,-1.24,-4.73,1.71,-2.64
1.549,-12.06,-2.02,-1.24,-4.73,1.73,-2.63
1.551,-12.06,-2.02,-1.24,-4.74,1.75,-2.62
1.552,-12.47,-1.61,-1.14,-4.74,1.75,-2.62
1.555,-12.47,-1.61,-1.14,-4.74,1.77,-2.60
1.556,-12.47,-1.61,-1.14,-4.75,1.78,-2.58
1.556,-12.82,-1.23,-0.95,-4.75,1.78,-2.58
1.557,-12.82,-1.23,-0.95,-4.75,1.78,-2.56
1.559,-12.82,-1.23,-0.95,-4.76,1.77,-2.53
1.559,-13.16,-0.88,-0.74,-4.76,1.77,-2.53
1.561,-13.16,-0.88,-0.74,-4.76,1.76,-2.49
1.563,-13.16,-0.88,-0.74,-4.76,1.74,-2.45
1.563,-13.54,-0.49,-0.52,-4.76,1.74,-2.45
1.572,-13.54,-0.49,-0.52,-4.76,1.71,-2.40
1.574,-13.54,-0.49,-0.52,-4.76,1.68,-2.34
1.574,-13.97,-0.06,-0.25,-4.76,1.68,-2.34
1.575,-13.97,-0.06,-0.25,-4.76,1.65,-2.27
1.576,-13.97,-0.06,-0.25,-4.75,1.62,-2.20
1.576,-14.41,0.35,0.11,-4.75,1.62,-2.20
1.577,-14.41,0.35,0.11,-4.75,1.57,-2.12
1.578,-14.41,0.35,0.11,-4.74,1.53,-2.03
1.579,-14.76,0.66,0.46,-4.74,1.53,-2.03
1.58,-14.76,0.66,0.46,-4.73,1.48,-1.94
1.58,-14.76,0.66,0.46,-4.72,1.42,-1.85
1.581,-15.03,0.84,0.78,-4.72,1.42,-1.85
1.582,-15.03,0.84,0.78,-4.70,1.36,-1.75
1.586,-15.03,0.84,0.78,-4.68,1.28,-1.65
1.586,-15.18,1.00,1.08,-4.68,1.28,-1.65
1.587,-15.18,1.00,1.08,-4.66,1.19,-1.54
1.587,-15.18,1.00,1.08,-4.64,1.09,-1.44
1.587,-15.20,1.21,1.48,-4.64,1.09,-1.44
1.589,-15.20,1.21,1.48,-4.61,0.99,-1.33
1.591,-15.20,1.21,1.48,-4.58,0.89,-1.21
1.591,-15.15,1.51,1.94,-4.58,0.89,-1.21
1.592,-15.15,1.51,1.94,-4.55,0.78,-1.10
1.595,-15.15,1.51,1.94,-4.51,0.68,-0.98
1.595,-15.09,1.82,2.43,-4.51,0.68,-0.98
1.596,-15.09,1.82,2.43,-4.47,0.59,-0.86
1.599,-15.09,1.82,2.43,-4.42,0.50,-0.74
1.599,-14.98,2.12,2.90,-4.42,0.50,-0.74
1.601,-14.98,2.12,2.90,-4.38,0.42,-0.62
1.603,-14.98,2.12,2.90,-4.32,0.35,-0.50
1.603,-14.80,2.40,3.44,-4.32,0.35,-0.50
1.605,-14.80,2.40,3.44,-4.27,0.29,-0.39
1.607,-14.80,2.40,3.44,-4.21,0.23,-0.27
1.608,-14.56,2.68,4.05,-4.21,0.23,-0.27
1.609,-14.56,2.68,4.05,-4.15,0.18,-0.16
1.611,-14.56,2.68,4.05,-4.08,0.13,-0.05
1.611,-14.19,2.96,4.67,-4.08,0.13,-0.05
1.612,-14.19,2.96,4.67,-4.01,0.11,0.04
1.616,-14.19,2.96,4.67,-3.95,0.10,0.14
1.616,-13.70,3.20,5.35,-3.95,0.10,0.14
1.617,-13.70,3.20,5.35,-3.88,0.10,0.23
1.619,-13.70,3.20,5.35,-3.81,0.12,0.32
1.619,-13.09,3.33,6.13,-3.81,0.12,0.32
1.621,-13.09,3.33,6.13,-3.74,0.15,0.40
1.623,-13.09,3.33,6.13,-3.66,0.20,0.47
1.624,-12.42,3.42,6.89,-3.66,0.20,0.47
1.624,-12.42,3.42,6.89,-3.59,0.26,0.54
1.627,-12.42,3.42,6.89,-3.51,0.32,0.60
1.627,-11.73,3.51,7.57,-3.51,0.32,0.60
1.628,-11.73,3.51,7.57,-3.43,0.39,0.65
1.631,-11.73,3.51,7.57,-3.34,0.46,0.70
1.631,-11.13,3.64,8.14,-3.34,0.46,0.70
1.633,-11.13,3.64,8.14,-3.25,0.53,0.75
1.635,-11.13,3.64,8.14,-3.17,0.60,0.79
1.635,-10.62,3.84,8.58,-3.17,0.60,0.79
1.637,-10.62,3.84,8.58,-3.08,0.68,0.83
1.639,-10.62,3.84,8.58,-2.99,0.75,0.87
1.64,-10.19,4.05,8.89,-2.99,0.75,0.87
1.641,-10.19,4.05,8.89,-2.90,0.82,0.90
1.643,-10.19,4.05,8.89,-2.81,0.89,0.93
1.643,-9.80,4.18,9.10,-2.81,0.89,0.93
1.644,-9.80,4.18,9.10,-2.72,0.96,0.95
1.647,-9.80,4.18,9.10,-2.63,1.03,0.97
1.647,-9.36,4.25,9.17,-2.63,1.03,0.97
1.649,-9.36,4.25,9.17,-2.54,1.10,0.99
1.651,-9.36,4.25,9.17,-2.46,1.16,1.00
1.651,-8.89,4.27,9.15,-2.46,1.16,1.00
1.653,-8.89,4.27,9.15,-2.37,1.22,1.01
1.655,-8.89,4.27,9.15,-2.28,1.28,1.01
1.655,-8.40,4.30,9.16,-2.28,1.28,1.01
1.656,-8.40,4.30,9.16,-2.20,1.34,1.02
1.659,-8.40,4.30,9.16,-2.12,1.40,1.02
1.659,-7.89,4.39,9.12,-2.12,1.40,1.02
1.66,-7.89,4.39,9.12,-2.04,1.46,1.03
1.663,-7.89,4.39,9.12,-1.95,1.52,1.03
1.663,-7.41,4.51,9.09,-1.95,1.52,1.03
1.664,-7.41,4.51,9.09,-1.87,1.58,1.03
1.673,-7.41,4.51,9.09,-1.79,1.63,1.03
1.674,-6.95,4.63,9.11,-1.79,1.63,1.03
1.674,-6.95,4.63,9.11,-1.71,1.69,1.03
1.674,-6.95,4.63,9.11,-1.63,1.75,1.03
1.675,-6.46,4.72,9.05,-1.63,1.75,1.03
1.675,-6.46,4.72,9.05,-1.55,1.82,1.02
1.675,-6.46,4.72,9.05,-1.47,1.88,1.02
1.676,-5.99,4.77,9.02,-1.47,1.88,1.02
1.677,-5.99,4.77,9.02,-1.39,1.95,1.02
1.679,-5.99,4.77,9.02,-1.31,2.01,1.01
1.68,-5.54,4.80,8.98,-1.31,2.01,1.01
1.681,-5.54,4.80,8.98,-1.23,2.07,1.01
1.686,-5.54,4.80,8.98,-1.14,2.12,1.01
1.687,-5.05,4.85,9.00,-1.14,2.12,1.01
1.687,-5.05,4.85,9.00,-1.06,2.16,1.00
1.691,-5.05,4.85,9.00,-0.97,2.20,0.99
1.691,-4.51,4.88,9.05,-0.97,2.20,0.99
1.692,-4.51,4.88,9.05,-0.88,2.23,0.99
1.692,-4.51,4.88,9.05,-0.79,2.27,0.98
1.693,-3.96,4.94,8.98,-0.79,2.27,0.98
1.693,-3.96,4.94,8.98,-0.70,2.30,0.97
1.695,-3.96,4.94,8.98,-0.61,2.32,0.96
1.695,-3.42,4.96,8.91,-0.61,2.32,0.96
1.696,-3.42,4.96,8.91,-0.52,2.35,0.96
1.699,-3.42,4.96,8.91,-0.43,2.38,0.95
1.699,-2.91,4.94,8.81,-0.43,2.38,0.95
1.7,-2.91,4.94,8.81,-0.34,2.41,0.94
1.703,-2.91,4.94,8.81,-0.24,2.43,0.94
1.703,-2.35,4.82,8.76,-0.24,2.43,0.94
1.704,-2.35,4.82,8.76,-0.13,2.46,0.92
1.707,-2.35,4.82,8.76,0.00,2.50,0.90
1.707,-1.80,4.59,8.89,0.00,2.50,0.90
1.708,-1.80,4.59,8.89,0.14,2.54,0.87
1.71,-1.80,4.59,8.89,0.28,2.57,0.84
1.711,-0.57,4.05,10.19,0.28,2.57,0.84
1.712,-0.57,4.05,10.19,0.43,2.61,0.81
1.714,-0.57,4.05,10.19,0.58,2.64,0.77
1.715,0.41,3.50,10.66,0.58,2.64,0.77
1.716,0.41,3.50,10.66,0.74,2.67,0.74
1.718,0.41,3.50,10.66,0.89,2.70,0.70
1.719,1.36,2.94,10.82,0.89,2.70,0.70
1.72,1.36,2.94,10.82,1.04,2.72,0.65
1.722,1.36,2.94,10.82,1.19,2.75,0.61
1.723,2.17,2.37,10.77,1.19,2.75,0.61
1.724,2.17,2.37,10.77,1.34,2.78,0.58
1.726,2.17,2.37,10.77,1.48,2.80,0.54
1.726,2.89,1.78,10.51,1.48,2.80,0.54
1.728,2.89,1.78,10.51,1.61,2.81,0.51
1.73,2.89,1.78,10.51,1.74,2.82,0.48
1.73,3.34,1.34,10.13,1.74,2.82,0.48
1.732,3.34,1.34,10.13,1.85,2.81,0.45
1.734,3.34,1.34,10.13,1.96,2.80,0.43
1.735,3.66,1.00,9.38,1.96,2.80,0.43
1.736,3.66,1.00,9.38,2.06,2.78,0.41
1.738,3.66,1.00,9.38,2.14,2.75,0.39
1.739,3.87,0.86,8.45,2.14,2.75,0.39
1.74,3.87,0.86,8.45,2.22,2.71,0.38
1.742,3.87,0.86,8.45,2.28,2.67,0.37
1.742,3.93,0.87,7.42,2.28,2.67,0.37
1.744,3.93,0.87,7.42,2.32,2.62,0.37
1.746,3.93,0.87,7.42,2.35,2.56,0.36
1.746,3.85,0.98,6.31,2.35,2.56,0.36
1.751,3.85,0.98,6.31,2.37,2.51,0.37
1.752,3.85,0.98,6.31,2.38,2.46,0.37
1.752,3.72,1.08,5.22,2.38,2.46,0.37
1.752,3.72,1.08,5.22,2.37,2.41,0.39
1.755,3.72,1.08,5.22,2.36,2.36,0.39
1.755,3.46,1.27,4.24,2.36,2.36,0.39
1.756,3.46,1.27,4.24,2.33,2.31,0.40
1.758,3.46,1.27,4.24,2.29,2.27,0.42
1.759,3.19,1.48,3.23,2.29,2.27,0.42
1.76,3.19,1.48,3.23,2.25,2.23,0.42
1.762,3.19,1.48,3.23,2.20,2.20,0.43
1.762,3.05,1.67,2.34,2.20,2.20,0.43
1.764,3.05,1.67,2.34,2.13,2.16,0.43
1.766,3.05,1.67,2.34,2.07,2.13,0.42
1.767,2.98,1.85,1.42,2.07,2.13,0.42
1.768,2.98,1.85,1.42,1.99,2.09,0.41
1.77,2.98,1.85,1.42,1.92,2.05,0.40
1.771,3.03,1.95,0.57,1.92,2.05,0.40
1.772,3.03,1.95,0.57,1.85,2.02,0.38
1.774,3.03,1.95,0.57,1.78,1.98,0.35
1.775,3.10,1.98,0.02,1.78,1.98,0.35
1.776,3.10,1.98,0.02,1.70,1.94,0.32
1.778,3.10,1.98,0.02,1.64,1.90,0.28
1.779,3.22,1.85,-0.30,1.64,1.90,0.28
1.78,3.22,1.85,-0.30,1.57,1.85,0.23
1.782,3.22,1.85,-0.30,1.51,1.80,0.18
1.783,3.45,1.58,-0.54,1.51,1.80,0.18
1.784,3.45,1.58,-0.54,1.45,1.75,0.12
1.786,3.45,1.58,-0.54,1.39,1.70,0.04
1.787,3.71,1.22,-0.73,1.39,1.70,0.04
1.788,3.71,1.22,-0.73,1.34,1.65,-0.03
1.79,3.71,1.22,-0.73,1.28,1.61,-0.11
1.791,4.00,0.76,-1.00,1.28,1.61,-0.11
1.792,4.00,0.76,-1.00,1.23,1.57,-0.21
1.794,4.00,0.76,-1.00,1.18,1.52,-0.30
1.795,4.21,0.40,-1.25,1.18,1.52,-0.30
1.796,4.21,0.40,-1.25,1.13,1.48,-0.40
1.799,4.21,0.40,-1.25,1.09,1.44,-0.50
1.8,4.36,0.05,-1.32,1.09,1.44,-0.50
1.8,4.36,0.05,-1.32,1.05,1.40,-0.60
1.802,4.36,0.05,-1.32,1.01,1.37,-0.70
1.803,4.41,-0.19,-1.54,1.01,1.37,-0.70
1.804,4.41,-0.19,-1.54,0.97,1.34,-0.80
1.806,4.41,-0.19,-1.54,0.93,1.32,-0.90
1.807,4.35,-0.28,-1.63,0.93,1.32,-0.90
1.808,4.35,-0.28,-1.63,0.89,1.29,-1.00
1.81,4.35,-0.28,-1.63,0.86,1.28,-1.10
1.81,4.20,-0.41,-1.81,0.86,1.28,-1.10
1.812,4.20,-0.41,-1.81,0.82,1.28,-1.19
1.814,4.20,-0.41,-1.81,0.78,1.29,-1.28
1.814,4.07,-0.56,-1.92,0.78,1.29,-1.28
1.816,4.07,-0.56,-1.92,0.74,1.30,-1.36
1.818,4.07,-0.56,-1.92,0.69,1.33,-1.43
1.821,3.86,-0.74,-2.10,0.69,1.33,-1.43
1.821,3.86,-0.74,-2.10,0.64,1.36,-1.50
1.822,3.86,-0.74,-2.10,0.60,1.39,-1.56
1.823,3.55,-1.01,-2.21,0.60,1.39,-1.56
1.824,3.55,-1.01,-2.21,0.55,1.42,-1.60
1.826,3.55,-1.01,-2.21,0.51,1.45,-1.65
1.826,3.12,-1.33,-2.31,0.51,1.45,-1.65
1.828,3.12,-1.33,-2.31,0.47,1.47,-1.67
1.83,3.12,-1.33,-2.31,0.44,1.49,-1.69
1.83,2.58,-1.60,-2.27,0.44,1.49,-1.69
1.832,2.58,-1.60,-2.27,0.42,1.50,-1.70
1.834,2.58,-1.60,-2.27,0.39,1.50,-1.70
1.834,2.06,-1.81,-2.14,0.39,1.50,-1.70
1.836,2.06,-1.81,-2.14,0.38,1.48,-1.69
1.838,2.06,-1.81,-2.14,0.37,1.46,-1.67
1.839,1.53,-1.93,-2.04,0.37,1.46,-1.67
1.84,1.53,-1.93,-2.04,0.37,1.42,-1.65
1.842,1.53,-1.93,-2.04,0.37,1.37,-1.62
1.842,1.13,-1.93,-1.79,0.37,1.37,-1.62
1.844,1.13,-1.93,-1.79,0.37,1.31,-1.59
1.846,1.13,-1.93,-1.79,0.38,1.25,-1.55
1.846,0.77,-1.85,-1.66,0.38,1.25,-1.55
1.848,0.77,-1.85,-1.66,0.39,1.18,-1.51
1.85,0.77,-1.85,-1.66,0.41,1.09,-1.46
1.85,0.52,-1.69,-1.43,0.41,1.09,-1.46
1.852,0.52,-1.69,-1.43,0.43,1.00,-1.41
1.854,0.52,-1.69,-1.43,0.45,0.91,-1.35
1.855,0.28,-1.45,-1.15,0.45,0.91,-1.35
1.856,0.28,-1.45,-1.15,0.48,0.82,-1.30
1.858,0.28,-1.45,-1.15,0.51,0.72,-1.24
1.858,0.11,-1.23,-0.75,0.51,0.72,-1.24
1.86,0.11,-1.23,-0.75,0.54,0.62,-1.19
1.862,0.11,-1.23,-0.75,0.57,0.53,-1.13
1.862,0.05,-0.98,-0.56,0.57,0.53,-1.13
1.863,0.05,-0.98,-0.56,0.60,0.43,-1.08
1.872,0.05,-0.98,-0.56,0.64,0.34,-1.03
1.872,0.12,-0.70,-0.27,0.64,0.34,-1.03
1.873,0.12,-0.70,-0.27,0.66,0.24,-0.98
1.873,0.12,-0.70,-0.27,0.70,0.14,-0.93
1.873,0.25,-0.45,-0.08,0.70,0.14,-0.93
1.874,0.25,-0.45,-0.08,0.72,0.04,-0.89
1.874,0.25,-0.45,-0.08,0.75,-0.06,-0.86
1.874,0.42,-0.23,-0.05,0.75,-0.06,-0.86
1.876,0.42,-0.23,-0.05,0.77,-0.15,-0.83
1.878,0.42,-0.23,-0.05,0.80,-0.24,-0.81
1.879,0.63,0.03,0.04,0.80,-0.24,-0.81
1.88,0.63,0.03,0.04,0.82,-0.33,-0.79
1.883,0.63,0.03,0.04,0.84,-0.42,-0.77
1.884,0.90,0.36,0.06,0.84,-0.42,-0.77
1.884,0.90,0.36,0.06,0.87,-0.51,-0.77
1.886,0.90,0.36,0.06,0.89,-0.58,-0.77
1.886,1.23,0.62,0.30,0.89,-0.58,-0.77
1.888,1.23,0.62,0.30,0.91,-0.65,-0.77
1.89,1.23,0.62,0.30,0.92,-0.71,-0.78
1.89,1.36,0.86,0.38,0.92,-0.71,-0.78
1.891,1.36,0.86,0.38,0.93,-0.76,-0.79
1.894,1.36,0.86,0.38,0.94,-0.81,-0.81
1.894,1.61,1.19,0.25,0.94,-0.81,-0.81
1.895,1.61,1.19,0.25,0.95,-0.86,-0.84
1.898,1.61,1.19,0.25,0.96,-0.90,-0.88
1.898,1.88,1.43,0.33,0.96,-0.90,-0.88
1.899,1.88,1.43,0.33,0.97,-0.93,-0.93
1.902,1.88,1.43,0.33,0.98,-0.95,-0.98
1.902,2.32,1.71,0.34,0.98,-0.95,-0.98
1.904,2.32,1.71,0.34,0.99,-0.97,-1.04
1.906,2.32,1.71,0.34,1.00,-0.99,-1.10
1.906,2.63,1.81,0.68,1.00,-0.99,-1.10
1.908,2.63,1.81,0.68,1.02,-0.99,-1.16
1.91,2.63,1.81,0.68,1.03,-1.00,-1.23
1.91,2.77,1.63,0.85,1.03,-1.00,-1.23
1.911,2.77,1.63,0.85,1.04,-0.99,-1.30
1.914,2.77,1.63,0.85,1.05,-0.99,-1.37
1.914,2.95,1.43,0.96,1.05,-0.99,-1.37
1.915,2.95,1.43,0.96,1.06,-0.97,-1.45
1.918,2.95,1.43,0.96,1.07,-0.96,-1.52
1.918,3.14,1.22,1.14,1.07,-0.96,-1.52
1.919,3.14,1.22,1.14,1.08,-0.95,-1.60
1.922,3.14,1.22,1.14,1.08,-0.93,-1.67
1.922,3.16,1.10,1.08,1.08,-0.93,-1.67
1.923,3.16,1.10,1.08,1.09,-0.92,-1.75
1.926,3.16,1.10,1.08,1.09,-0.91,-1.83
1.926,3.17,0.97,0.94,1.09,-0.91,-1.83
1.927,3.17,0.97,0.94,1.09,-0.90,-1.91
1.93,3.17,0.97,0.94,1.09,-0.90,-1.99
1.93,3.21,0.94,0.72,1.09,-0.90,-1.99
1.932,3.21,0.94,0.72,1.08,-0.88,-2.08
1.934,3.21,0.94,0.72,1.08,-0.85,-2.16
1.934,3.16,0.71,0.70,1.08,-0.85,-2.16
1.935,3.16,0.71,0.70,1.06,-0.80,-2.24
1.938,3.16,0.71,0.70,1.04,-0.74,-2.31
1.939,3.02,0.52,0.38,1.04,-0.74,-2.31
1.939,3.02,0.52,0.38,1.03,-0.65,-2.37
1.942,3.02,0.52,0.38,1.01,-0.55,-2.43
1.942,2.66,0.11,0.57,1.01,-0.55,-2.43
1.943,2.66,0.11,0.57,0.99,-0.43,-2.48
1.946,2.66,0.11,0.57,0.97,-0.31,-2.52
1.946,2.16,-0.54,0.92,0.97,-0.31,-2.52
1.947,2.16,-0.54,0.92,0.95,-0.18,-2.56
1.95,2.16,-0.54,0.92,0.93,-0.05,-2.60
1.95,1.48,-1.47,1.26,0.93,-0.05,-2.60
1.953,1.48,-1.47,1.26,0.91,0.10,-2.63
1.954,1.48,-1.47,1.26,0.89,0.24,-2.66
1.954,0.84,-2.40,1.22,0.89,0.24,-2.66
1.955,0.84,-2.40,1.22,0.87,0.38,-2.69
1.958,0.84,-2.40,1.22,0.85,0.51,-2.71
1.958,0.54,-3.08,0.97,0.85,0.51,-2.71
1.959,0.54,-3.08,0.97,0.82,0.63,-2.74
1.961,0.54,-3.08,0.97,0.79,0.74,-2.76
1.962,0.24,-3.56,0.39,0.79,0.74,-2.76
1.963,0.24,-3.56,0.39,0.77,0.85,-2.78
1.972,0.24,-3.56,0.39,0.74,0.94,-2.80
1.973,-0.18,-3.89,-0.08,0.74,0.94,-2.80
1.973,-0.18,-3.89,-0.08,0.71,1.03,-2.81
1.973,-0.18,-3.89,-0.08,0.69,1.11,-2.82
1.974,-0.50,-4.19,-0.37,0.69,1.11,-2.82
1.974,-0.50,-4.19,-0.37,0.67,1.18,-2.83
1.974,-0.50,-4.19,-0.37,0.65,1.23,-2.85
1.975,-0.55,-4.12,-0.67,0.65,1.23,-2.85
1.975,-0.55,-4.12,-0.67,0.64,1.27,-2.86
1.978,-0.55,-4.12,-0.67,0.62,1.29,-2.86
1.978,-0.81,-4.05,-0.88,0.62,1.29,-2.86
1.979,-0.81,-4.05,-0.88,0.61,1.30,-2.87
1.985,-0.81,-4.05,-0.88,0.61,1.30,-2.87
1.986,-1.01,-3.78,-0.85,0.61,1.30,-2.87
1.986,-1.01,-3.78,-0.85,0.61,1.29,-2.86
1.987,-1.01,-3.78,-0.85,0.61,1.26,-2.86
1.987,-1.10,-3.54,-0.86,0.61,1.26,-2.86
1.987,-1.10,-3.54,-0.86,0.62,1.23,-2.85
1.99,-1.10,-3.54,-0.86,0.63,1.18,-2.83
1.99,-1.22,-3.33,-0.70,0.63,1.18,-2.83
1.991,-1.22,-3.33,-0.70,0.65,1.13,-2.81
1.994,-1.22,-3.33,-0.70,0.66,1.09,-2.79
1.994,-1.51,-3.11,-0.51,0.66,1.09,-2.79
1.995,-1.51,-3.11,-0.51,0.68,1.03,-2.77
1.998,-1.51,-3.11,-0.51,0.68,0.97,-2.73
1.998,-1.60,-2.83,-0.53,0.68,0.97,-2.73
1.999,-1.60,-2.83,-0.53,0.68,0.89,-2.70
2.001,-1.60,-2.83,-0.53,0.68,0.82,-2.67
2.002,-1.57,-2.24,-0.78,0.68,0.82,-2.67
2.003,-1.57,-2.24,-0.78,0.68,0.75,-2.65
2.006,-1.57,-2.24,-0.78,0.67,0.69,-2.63
2.006,-1.34,-1.97,-1.00,0.67,0.69,-2.63
2.007,-1.34,-1.97,-1.00,0.67,0.62,-2.63
2.01,-1.34,-1.97,-1.00,0.66,0.56,-2.62
2.01,-0.94,-2.08,-0.94,0.66,0.56,-2.62
2.011,-0.94,-2.08,-0.94,0.66,0.48,-2.62
2.013,-0.94,-2.08,-0.94,0.65,0.40,-2.63
2.014,-0.79,-2.18,-0.90,0.65,0.40,-2.63
2.016,-0.79,-2.18,-0.90,0.64,0.31,-2.64
2.017,-0.79,-2.18,-0.90,0.63,0.21,-2.66
2.018,-0.36,-2.21,-0.94,0.63,0.21,-2.66
2.019,-0.36,-2.21,-0.94,0.60,0.09,-2.69
2.022,-0.36,-2.21,-0.94,0.58,-0.04,-2.73
2.022,0.27,-2.01,-1.33,0.58,-0.04,-2.73
2.023,0.27,-2.01,-1.33,0.56,-0.17,-2.76
2.025,0.27,-2.01,-1.33,0.53,-0.30,-2.80
2.026,0.65,-1.82,-1.60,0.53,-0.30,-2.80
2.027,0.65,-1.82,-1.60,0.50,-0.41,-2.84
2.029,0.65,-1.82,-1.60,0.47,-0.53,-2.88
2.03,0.77,-1.53,-1.70,0.47,-0.53,-2.88
2.031,0.77,-1.53,-1.70,0.44,-0.65,-2.90
2.033,0.77,-1.53,-1.70,0.42,-0.77,-2.93
2.034,0.51,-1.19,-1.68,0.42,-0.77,-2.93
2.035,0.51,-1.19,-1.68,0.39,-0.88,-2.95
2.038,0.51,-1.19,-1.68,0.36,-0.98,-2.96
2.038,-0.03,-1.05,-1.52,0.36,-0.98,-2.96
2.039,-0.03,-1.05,-1.52,0.33,-1.06,-2.96
2.041,-0.03,-1.05,-1.52,0.31,-1.14,-2.95
2.042,-0.19,-0.82,-1.32,0.31,-1.14,-2.95
2.043,-0.19,-0.82,-1.32,0.30,-1.24,-2.94
2.045,-0.19,-0.82,-1.32,0.28,-1.46,-3.01
2.045,-0.67,-0.86,-1.16,0.28,-1.46,-3.01
2.047,-0.67,-0.86,-1.16,0.28,-1.69,-3.09
2.055,-0.67,-0.86,-1.16,0.28,-1.86,-3.16
2.056,1.17,1.82,-1.86,0.28,-1.86,-3.16
2.056,1.17,1.82,-1.86,0.28,-2.00,-3.23
2.056,1.17,1.82,-1.86,0.28,-2.11,-3.30
2.057,1.96,2.89,-1.71,0.28,-2.11,-3.30
2.057,1.96,2.89,-1.71,0.28,-2.20,-3.37
2.057,1.96,2.89,-1.71,0.28,-2.27,-3.43
2.058,2.12,2.93,-1.36,0.28,-2.27,-3.43
2.059,2.12,2.93,-1.36,0.28,-2.32,-3.49
2.061,2.12,2.93,-1.36,0.27,-2.35,-3.55
2.062,2.31,2.86,-0.88,0.27,-2.35,-3.55
2.063,2.31,2.86,-0.88,0.27,-2.35,-3.60
2.068,2.31,2.86,-0.88,0.26,-2.33,-3.65
2.068,2.43,2.65,-0.23,0.26,-2.33,-3.65
2.069,2.43,2.65,-0.23,0.25,-2.28,-3.69
2.069,2.43,2.65,-0.23,0.24,-2.20,-3.72
2.07,2.17,2.16,0.76,0.24,-2.20,-3.72
2.071,2.17,2.16,0.76,0.22,-2.09,-3.74
2.073,2.17,2.16,0.76,0.19,-1.95,-3.76
2.074,2.08,1.79,1.74,0.19,-1.95,-3.76
2.075,2.08,1.79,1.74,0.15,-1.77,-3.76
2.077,2.08,1.79,1.74,0.11,-1.55,-3.72
2.078,1.76,1.53,2.09,0.11,-1.55,-3.72
2.079,1.76,1.53,2.09,0.07,-1.31,-3.66
2.081,1.76,1.53,2.09,0.02,-1.07,-3.60
2.081,0.47,2.46,2.37,0.02,-1.07,-3.60
2.083,0.47,2.46,2.37,-0.03,-0.83,-3.54
2.086,0.47,2.46,2.37,-0.09,-0.60,-3.47
2.086,-0.13,3.03,1.90,-0.09,-0.60,-3.47
2.087,-0.13,3.03,1.90,-0.16,-0.39,-3.41
2.089,-0.13,3.03,1.90,-0.22,-0.20,-3.34
2.09,-0.00,3.27,0.98,-0.22,-0.20,-3.34
2.091,-0.00,3.27,0.98,-0.29,-0.03,-3.28
2.093,-0.00,3.27,0.98,-0.36,0.12,-3.21
2.094,-0.21,3.48,0.40,-0.36,0.12,-3.21
2.095,-0.21,3.48,0.40,-0.43,0.26,-3.16
2.097,-0.21,3.48,0.40,-0.50,0.37,-3.10
2.098,-0.23,3.76,-0.32,-0.50,0.37,-3.10
2.099,-0.23,3.76,-0.32,-0.57,0.47,-3.05
2.101,-0.23,3.76,-0.32,-0.63,0.54,-3.00
2.102,-0.13,3.91,-1.06,-0.63,0.54,-3.00
2.103,-0.13,3.91,-1.06,-0.69,0.60,-2.95
2.105,-0.13,3.91,-1.06,-0.75,0.63,-2.91
2.106,-0.07,4.18,-1.34,-0.75,0.63,-2.91
2.107,-0.07,4.18,-1.34,-0.80,0.65,-2.87
2.109,-0.07,4.18,-1.34,-0.84,0.65,-2.83
2.109,0.07,4.28,-1.36,-0.84,0.65,-2.83
2.111,0.07,4.28,-1.36,-0.88,0.63,-2.81
2.113,0.07,4.28,-1.36,-0.92,0.59,-2.77
2.113,0.14,4.38,-1.36,-0.92,0.59,-2.77
2.116,0.14,4.38,-1.36,-0.95,0.55,-2.74
2.117,0.14,4.38,-1.36,-0.98,0.49,-2.72
2.118,0.13,4.42,-1.09,-0.98,0.49,-2.72
2.119,0.13,4.42,-1.09,-1.00,0.41,-2.69
2.121,0.13,4.42,-1.09,-1.01,0.32,-2.66
2.122,0.23,4.51,-1.06,-1.01,0.32,-2.66
2.123,0.23,4.51,-1.06,-1.01,0.21,-2.62
2.125,0.23,4.51,-1.06,-1.01,0.09,-2.59
2.125,0.24,4.55,-0.88,-1.01,0.09,-2.59
2.127,0.24,4.55,-0.88,-1.01,-0.03,-2.55
2.129,0.24,4.55,-0.88,-1.00,-0.14,-2.52
2.129,0.23,4.64,-0.81,-1.00,-0.14,-2.52
2.131,0.23,4.64,-0.81,-1.01,-0.24,-2.49
2.133,0.23,4.64,-0.81,-1.02,-0.33,-2.48
2.133,0.40,4.86,-0.79,-1.02,-0.33,-2.48
2.135,0.40,4.86,-0.79,-1.03,-0.40,-2.47
2.137,0.40,4.86,-0.79,-1.04,-0.46,-2.46
2.138,0.73,5.16,-0.78,-1.04,-0.46,-2.46
2.139,0.73,5.16,-0.78,-1.06,-0.52,-2.47
2.141,0.73,5.16,-0.78,-1.07,-0.57,-2.46
2.141,1.00,5.43,-0.87,-1.07,-0.57,-2.46
2.143,1.00,5.43,-0.87,-1.08,-0.62,-2.46
2.145,1.00,5.43,-0.87,-1.09,-0.67,-2.46
2.145,1.07,5.55,-0.67,-1.09,-0.67,-2.46
2.147,1.07,5.55,-0.67,-1.10,-0.71,-2.47
2.155,1.07,5.55,-0.67,-1.12,-0.75,-2.47
2.156,1.28,5.67,-0.60,-1.12,-0.75,-2.47
2.156,1.28,5.67,-0.60,-1.13,-0.79,-2.48
2.157,1.28,5.67,-0.60,-1.14,-0.82,-2.48
2.157,1.45,5.81,-0.69,-1.14,-0.82,-2.48
2.157,1.45,5.81,-0.69,-1.17,-0.85,-2.49
2.158,1.45,5.81,-0.69,-1.20,-0.86,-2.49
2.158,1.50,5.90,-1.11,-1.20,-0.86,-2.49
2.159,1.50,5.90,-1.11,-1.22,-0.89,-2.50
2.161,1.50,5.90,-1.11,-1.24,-0.91,-2.50
2.162,1.55,5.99,-1.54,-1.24,-0.91,-2.50
2.163,1.55,5.99,-1.54,-1.27,-0.94,-2.50
2.167,1.55,5.99,-1.54,-1.30,-0.96,-2.50
2.168,1.53,5.92,-1.83,-1.30,-0.96,-2.50
2.168,1.53,5.92,-1.83,-1.32,-0.98,-2.50
2.169,1.53,5.92,-1.83,-1.34,-1.00,-2.48
2.169,1.27,5.77,-2.18,-1.34,-1.00,-2.48
2.171,1.27,5.77,-2.18,-1.35,-1.02,-2.47
2.173,1.27,5.77,-2.18,-1.35,-1.05,-2.47
2.173,0.89,5.37,-2.34,-1.35,-1.05,-2.47
2.175,0.89,5.37,-2.34,-1.36,-1.07,-2.48
2.177,0.89,5.37,-2.34,-1.36,-1.12,-2.49
2.177,0.71,3.85,-2.22,-1.36,-1.12,-2.49
2.178,0.71,3.85,-2.22,-1.34,-1.17,-2.51
2.181,0.71,3.85,-2.22,-1.33,-1.24,-2.53
2.181,0.56,1.55,-2.49,-1.33,-1.24,-2.53
2.183,0.56,1.55,-2.49,-1.30,-1.32,-2.56
2.185,0.56,1.55,-2.49,-1.27,-1.40,-2.61
2.185,0.47,-0.92,-2.33,-1.27,-1.40,-2.61
2.187,0.47,-0.92,-2.33,-1.24,-1.49,-2.66
2.189,0.47,-0.92,-2.33,-1.20,-1.61,-2.72
2.19,0.67,-3.41,-2.28,-1.20,-1.61,-2.72
2.19,0.67,-3.41,-2.28,-1.16,-1.73,-2.81
2.193,0.67,-3.41,-2.28,-1.11,-1.85,-2.92
2.193,1.32,-5.75,-2.40,-1.11,-1.85,-2.92
2.194,1.32,-5.75,-2.40,-1.06,-1.99,-3.03
2.197,1.32,-5.75,-2.40,-1.00,-2.14,-3.16
2.197,2.28,-8.06,-2.32,-1.00,-2.14,-3.16
2.199,2.28,-8.06,-2.32,-0.94,-2.29,-3.31
2.201,2.28,-8.06,-2.32,-0.88,-2.45,-3.46
2.202,3.33,-10.11,-2.12,-0.88,-2.45,-3.46
2.203,3.33,-10.11,-2.12,-0.82,-2.61,-3.62
2.205,3.33,-10.11,-2.12,-0.75,-2.76,-3.79
2.206,4.21,-12.04,-2.30,-0.75,-2.76,-3.79
2.206,4.21,-12.04,-2.30,-0.67,-2.90,-3.95
2.209,4.21,-12.04,-2.30,-0.59,-3.01,-4.12
2.209,4.74,-13.90,-1.67,-0.59,-3.01,-4.12
2.21,4.74,-13.90,-1.67,-0.52,-3.14,-4.28
2.213,4.74,-13.90,-1.67,-0.46,-3.28,-4.43
2.213,4.78,-16.00,-0.80,-0.46,-3.28,-4.43
2.214,4.78,-16.00,-0.80,-0.40,-3.39,-4.58
2.217,4.78,-16.00,-0.80,-0.35,-3.51,-4.72
2.22,4.93,-17.73,-1.06,-0.35,-3.51,-4.72
2.221,4.93,-17.73,-1.06,-0.31,-3.63,-4.84
2.221,4.93,-17.73,-1.06,-0.28,-3.75,-4.96
2.222,4.87,-18.84,-0.92,-0.28,-3.75,-4.96
2.223,4.87,-18.84,-0.92,-0.25,-3.87,-5.05
2.225,4.87,-18.84,-0.92,-0.24,-3.98,-5.13
2.225,4.51,-19.55,-0.87,-0.24,-3.98,-5.13
2.226,4.51,-19.55,-0.87,-0.22,-4.09,-5.19
2.229,4.51,-19.55,-0.87,-0.21,-4.18,-5.22
2.229,3.72,-19.92,-0.48,-0.21,-4.18,-5.22
2.23,3.72,-19.92,-0.48,-0.19,-4.25,-5.23
2.233,3.72,-19.92,-0.48,-0.18,-4.31,-5.21
2.233,2.79,-19.74,0.16,-0.18,-4.31,-5.21
2.234,2.79,-19.74,0.16,-0.17,-4.37,-5.16
2.237,2.79,-19.74,0.16,-0.15,-4.41,-5.08
2.237,1.36,-18.85,0.86,-0.15,-4.41,-5.08
2.239,1.36,-18.85,0.86,-0.14,-4.45,-4.97
2.241,1.36,-18.85,0.86,-0.12,-4.47,-4.84
2.241,-0.28,-17.41,1.49,-0.12,-4.47,-4.84
2.242,-0.28,-17.41,1.49,-0.09,-4.47,-4.67
2.245,-0.28,-17.41,1.49,-0.05,-4.44,-4.47
2.245,-2.11,-15.33,2.32,-0.05,-4.44,-4.47
2.246,-2.11,-15.33,2.32,0.01,-4.40,-4.24
2.256,-2.11,-15.33,2.32,0.07,-4.34,-4.00
2.257,-3.87,-12.89,3.27,0.07,-4.34,-4.00
2.257,-3.87,-12.89,3.27,0.15,-4.26,-3.75
2.258,-3.87,-12.89,3.27,0.23,-4.18,-3.48
2.258,-5.14,-10.38,4.23,0.23,-4.18,-3.48
2.258,-5.14,-10.38,4.23,0.32,-4.08,-3.22
2.259,-5.14,-10.38,4.23,0.40,-3.97,-2.95
2.259,-5.74,-7.99,4.71,0.40,-3.97,-2.95
2.259,-5.74,-7.99,4.71,0.48,-3.86,-2.68
2.261,-5.74,-7.99,4.71,0.55,-3.72,-2.42
2.261,-5.87,-5.81,4.75,0.55,-3.72,-2.42
2.262,-5.87,-5.81,4.75,0.60,-3.56,-2.17
2.265,-5.87,-5.81,4.75,0.65,-3.39,-1.92
2.265,-5.58,-3.94,4.39,0.65,-3.39,-1.92
2.267,-5.58,-3.94,4.39,0.69,-3.19,-1.70
2.269,-5.58,-3.94,4.39,0.73,-2.98,-1.48
2.269,-5.08,-2.40,3.89,0.73,-2.98,-1.48
2.27,-5.08,-2.40,3.89,0.76,-2.75,-1.26
2.273,-5.08,-2.40,3.89,0.80,-2.50,-1.06
2.273,-4.62,-1.10,3.49,0.80,-2.50,-1.06
2.274,-4.62,-1.10,3.49,0.83,-2.24,-0.86
2.277,-4.62,-1.10,3.49,0.86,-1.96,-0.68
2.277,-4.30,-0.02,3.17,0.86,-1.96,-0.68
2.278,-4.30,-0.02,3.17,0.89,-1.67,-0.51
2.281,-4.30,-0.02,3.17,0.91,-1.38,-0.34
2.281,-3.75,0.88,2.80,0.91,-1.38,-0.34
2.283,-3.75,0.88,2.80,0.92,-1.10,-0.20
2.285,-3.75,0.88,2.80,0.93,-0.82,-0.06
2.285,-3.02,1.61,2.21,0.93,-0.82,-0.06
2.286,-3.02,1.61,2.21,0.92,-0.56,0.05
2.289,-3.02,1.61,2.21,0.91,-0.30,0.16
2.289,-2.07,2.15,1.37,0.91,-0.30,0.16
2.29,-2.07,2.15,1.37,0.90,-0.05,0.26
2.293,-2.07,2.15,1.37,0.88,0.18,0.34
2.293,-1.15,2.51,0.66,0.88,0.18,0.34
2.294,-1.15,2.51,0.66,0.86,0.40,0.41
2.297,-1.15,2.51,0.66,0.84,0.61,0.47
2.297,-0.30,2.77,0.13,0.84,0.61,0.47
2.299,-0.30,2.77,0.13,0.81,0.80,0.51
2.301,-0.30,2.77,0.13,0.78,0.98,0.55
2.301,0.54,2.94,-0.31,0.78,0.98,0.55
2.302,0.54,2.94,-0.31,0.75,1.14,0.58
2.305,0.54,2.94,-0.31,0.72,1.28,0.60
2.306,1.32,3.02,-0.69,0.72,1.28,0.60
2.306,1.32,3.02,-0.69,0.68,1.40,0.61
2.309,1.32,3.02,-0.69,0.65,1.51,0.61
2.309,1.93,3.01,-0.96,0.65,1.51,0.61
2.31,1.93,3.01,-0.96,0.62,1.60,0.59
2.312,1.93,3.01,-0.96,0.59,1.67,0.58
2.313,2.57,3.05,-1.13,0.59,1.67,0.58
2.314,2.57,3.05,-1.13,0.55,1.72,0.55
2.317,2.57,3.05,-1.13,0.52,1.76,0.52
2.317,3.23,3.04,-1.29,0.52,1.76,0.52
2.318,3.23,3.04,-1.29,0.49,1.77,0.48
2.321,3.23,3.04,-1.29,0.45,1.78,0.43
2.321,3.71,2.95,-1.56,0.45,1.78,0.43
2.322,3.71,2.95,-1.56,0.42,1.77,0.38
2.325,3.71,2.95,-1.56,0.38,1.74,0.32
2.325,4.19,2.80,-1.82,0.38,1.74,0.32
2.326,4.19,2.80,-1.82,0.35,1.70,0.26
2.328,4.19,2.80,-1.82,0.31,1.65,0.20
2.329,4.51,2.51,-1.99,0.31,1.65,0.20
2.33,4.51,2.51,-1.99,0.27,1.58,0.14
2.332,4.51,2.51,-1.99,0.24,1.51,0.09
2.333,4.51,2.05,-2.15,0.24,1.51,0.09
2.334,4.51,2.05,-2.15,0.21,1.42,0.04
2.337,4.51,2.05,-2.15,0.18,1.33,-0.01
2.337,4.12,1.45,-2.20,0.18,1.33,-0.01
2.338,4.12,1.45,-2.20,0.15,1.23,-0.05
2.341,4.12,1.45,-2.20,0.12,1.12,-0.08
2.341,3.47,0.86,-2.17,0.12,1.12,-0.08
2.342,3.47,0.86,-2.17,0.10,1.01,-0.10
2.344,3.47,0.86,-2.17,0.08,0.90,-0.12
2.345,2.78,0.40,-2.04,0.08,0.90,-0.12
2.346,2.78,0.40,-2.04,0.06,0.79,-0.14
2.349,2.78,0.40,-2.04,0.04,0.68,-0.15
2.35,2.08,0.09,-1.88,0.04,0.68,-0.15
2.352,2.08,0.09,-1.88,0.03,0.58,-0.16
2.353,2.08,0.09,-1.88,0.01,0.47,-0.16
2.353,1.44,-0.10,-1.72,0.01,0.47,-0.16
2.354,1.44,-0.10,-1.72,0.00,0.36,-0.16
2.357,1.44,-0.10,-1.72,-0.01,0.26,-0.16
2.357,0.85,-0.20,-1.53,-0.01,0.26,-0.16
2.358,0.85,-0.20,-1.53,-0.02,0.16,-0.16
2.36,0.85,-0.20,-1.53,-0.03,0.07,-0.16
2.361,0.37,-0.26,-1.37,-0.03,0.07,-0.16
2.362,0.37,-0.26,-1.37,-0.03,-0.02,-0.15
2.364,0.37,-0.26,-1.37,-0.04,-0.10,-0.14
2.365,-0.01,-0.32,-1.21,-0.04,-0.10,-0.14
2.373,-0.01,-0.32,-1.21,-0.05,-0.17,-0.14
2.373,-0.01,-0.32,-1.21,-0.05,-0.24,-0.13
2.374,-0.30,-0.36,-1.01,-0.05,-0.24,-0.13
2.374,-0.30,-0.36,-1.01,-0.06,-0.30,-0.13
2.374,-0.30,-0.36,-1.01,-0.06,-0.35,-0.12
2.375,-0.51,-0.41,-0.82,-0.06,-0.35,-0.12
2.375,-0.51,-0.41,-0.82,-0.07,-0.40,-0.12
2.377,-0.51,-0.41,-0.82,-0.08,-0.44,-0.12
2.377,-0.64,-0.42,-0.63,-0.08,-0.44,-0.12
2.378,-0.64,-0.42,-0.63,-0.08,-0.46,-0.12
2.38,-0.64,-0.42,-0.63,-0.09,-0.49,-0.11
2.381,-0.74,-0.43,-0.45,-0.09,-0.49,-0.11
2.386,-0.74,-0.43,-0.45,-0.09,-0.49,-0.11
2.386,-0.74,-0.43,-0.45,-0.10,-0.50,-0.12
2.387,-0.80,-0.42,-0.29,-0.10,-0.50,-0.12
2.387,-0.80,-0.42,-0.29,-0.11,-0.49,-0.11
2.389,-0.80,-0.42,-0.29,-0.12,-0.48,-0.11
2.389,-0.86,-0.40,-0.12,-0.12,-0.48,-0.11
2.39,-0.86,-0.40,-0.12,-0.12,-0.46,-0.11
2.392,-0.86,-0.40,-0.12,-0.13,-0.44,-0.11
2.393,-0.93,-0.34,0.03,-0.13,-0.44,-0.11
2.394,-0.93,-0.34,0.03,-0.13,-0.41,-0.10
2.396,-0.93,-0.34,0.03,-0.13,-0.38,-0.10
2.397,-0.97,-0.29,0.16,-0.13,-0.38,-0.10
2.398,-0.97,-0.29,0.16,-0.13,-0.35,-0.09
2.4,-0.97,-0.29,0.16,-0.13,-0.32,-0.09
2.401,-1.01,-0.24,0.30,-0.13,-0.32,-0.09
2.402,-1.01,-0.24,0.30,-0.13,-0.28,-0.08
2.405,-1.01,-0.24,0.30,-0.13,-0.24,-0.06
2.405,-1.04,-0.18,0.40,-0.13,-0.24,-0.06
2.406,-1.04,-0.18,0.40,-0.12,-0.20,-0.05
2.408,-1.04,-0.18,0.40,-0.12,-0.17,-0.04
2.409,-1.04,-0.13,0.50,-0.12,-0.17,-0.04
2.41,-1.04,-0.13,0.50,-0.11,-0.12,-0.03
2.412,-1.04,-0.13,0.50,-0.10,-0.08,-0.02
2.413,-0.99,-0.12,0.54,-0.10,-0.08,-0.02
2.414,-0.99,-0.12,0.54,-0.09,-0.04,-0.01
2.416,-0.99,-0.12,0.54,-0.08,-0.00,-0.00
2.417,-0.90,-0.09,0.57,-0.08,-0.00,-0.00
2.418,-0.90,-0.09,0.57,-0.07,0.03,0.00
2.42,-0.90,-0.09,0.57,-0.06,0.07,0.01
2.421,-0.76,-0.05,0.55,-0.06,0.07,0.01
2.422,-0.76,-0.05,0.55,-0.05,0.10,0.02
2.424,-0.76,-0.05,0.55,-0.04,0.14,0.02
2.425,-0.61,-0.04,0.50,-0.04,0.14,0.02
2.426,-0.61,-0.04,0.50,-0.03,0.16,0.02
2.428,-0.61,-0.04,0.50,-0.02,0.19,0.02
2.428,-0.47,-0.02,0.40,-0.02,0.19,0.02
2.43,-0.47,-0.02,0.40,-0.01,0.21,0.02
2.433,-0.47,-0.02,0.40,-0.00,0.24,0.02
2.433,-0.36,-0.02,0.29,-0.00,0.24,0.02
2.434,-0.36,-0.02,0.29,0.00,0.25,0.02
2.436,-0.27,0.00,0.14,0.00,0.25,0.02
2.437,-0.27,0.00,0.14,0.01,0.27,0.03
2.438,-0.27,0.00,0.14,0.01,0.28,0.03
2.44,-0.27,0.00,0.14,0.01,0.29,0.03
2.441,-0.21,-0.02,-0.01,0.01,0.29,0.03
2.442,-0.21,-0.02,-0.01,0.01,0.29,0.03
2.444,-0.21,-0.02,-0.01,0.01,0.29,0.03
2.444,-0.17,-0.02,-0.19,0.01,0.29,0.03
2.446,-0.17,-0.02,-0.19,0.01,0.29,0.03
2.448,-0.17,-0.02,-0.19,0.01,0.28,0.03
2.448,-0.14,-0.04,-0.33,0.01,0.28,0.03
2.45,-0.14,-0.04,-0.33,0.00,0.28,0.03
2.452,-0.14,-0.04,-0.33,-0.01,0.27,0.03
2.452,-0.08,-0.07,-0.46,-0.01,0.27,0.03
2.454,-0.08,-0.07,-0.46,-0.01,0.25,0.03
2.456,-0.08,-0.07,-0.46,-0.02,0.23,0.03
2.457,-0.02,-0.09,-0.54,-0.02,0.23,0.03
2.458,-0.02,-0.09,-0.54,-0.03,0.22,0.03
2.46,-0.02,-0.09,-0.54,-0.03,0.20,0.03
2.46,0.03,-0.08,-0.62,-0.03,0.20,0.03
2.462,0.03,-0.08,-0.62,-0.04,0.17,0.03
2.464,0.03,-0.08,-0.62,-0.05,0.15,0.03
2.464,0.08,-0.09,-0.64,-0.05,0.15,0.03
2.473,0.08,-0.09,-0.64,-0.05,0.13,0.03
2.473,0.08,-0.09,-0.64,-0.06,0.11,0.02
2.474,0.12,-0.08,-0.62,-0.06,0.11,0.02
2.474,0.12,-0.08,-0.62,-0.06,0.09,0.03
2.474,0.12,-0.08,-0.62,-0.07,0.06,0.02
2.475,0.16,-0.09,-0.59,-0.07,0.06,0.02
2.475,0.16,-0.09,-0.59,-0.08,0.04,0.02
2.476,0.16,-0.09,-0.59,-0.09,0.03,0.02
2.477,0.19,-0.09,-0.49,-0.09,0.03,0.02
2.478,0.19,-0.09,-0.49,-0.09,0.01,0.02
2.48,0.19,-0.09,-0.49,-0.09,-0.00,0.02
2.481,0.20,-0.09,-0.41,-0.09,-0.00,0.02
2.486,0.20,-0.09,-0.41,-0.09,-0.02,0.01
2.49,0.20,-0.09,-0.41,-0.09,-0.03,0.02
2.49,0.20,-0.08,-0.31,-0.09,-0.03,0.02
2.49,0.20,-0.08,-0.31,-0.10,-0.03,0.02
2.491,0.20,-0.08,-0.31,-0.10,-0.04,0.02
2.491,0.22,-0.08,-0.17,-0.10,-0.04,0.02
2.491,0.22,-0.08,-0.17,-0.10,-0.04,0.02
2.492,0.22,-0.08,-0.17,-0.10,-0.04,0.02
2.492,0.23,-0.08,-0.06,-0.10,-0.04,0.02
2.494,0.23,-0.08,-0.06,-0.10,-0.03,0.02
2.496,0.23,-0.08,-0.06,-0.10,-0.03,0.02
2.497,0.25,-0.06,0.04,-0.10,-0.03,0.02
2.498,0.25,-0.06,0.04,-0.09,-0.02,0.02
2.5,0.25,-0.06,0.04,-0.09,-0.01,0.02
2.501,0.27,-0.05,0.15,-0.09,-0.01,0.02
2.502,0.27,-0.05,0.15,-0.09,0.00,0.02
2.504,0.27,-0.05,0.15,-0.08,0.01,0.01
2.505,0.30,-0.04,0.24,-0.08,0.01,0.01
2.506,0.30,-0.04,0.24,-0.08,0.02,0.01
2.508,0.30,-0.04,0.24,-0.08,0.04,0.01
2.508,0.33,-0.02,0.31,-0.08,0.04,0.01
2.51,0.33,-0.02,0.31,-0.07,0.05,0.01
2.512,0.33,-0.02,0.31,-0.06,0.07,0.01
2.512,0.34,0.03,0.39,-0.06,0.07,0.01
2.513,0.34,0.03,0.39,-0.06,0.08,0.01
2.516,0.34,0.03,0.39,-0.05,0.09,0.01
2.517,0.37,0.06,0.41,-0.05,0.09,0.01
2.517,0.37,0.06,0.41,-0.04,0.11,0.01
2.52,0.37,0.06,0.41,-0.04,0.12,0.01
2.52,0.37,0.07,0.42,-0.04,0.12,0.01
2.522,0.37,0.07,0.42,-0.04,0.13,0.01
2.524,0.37,0.07,0.42,-0.03,0.15,0.00
2.525,0.37,0.07,0.41,-0.03,0.15,0.00
2.525,0.37,0.07,0.41,-0.02,0.16,0.00
2.528,0.37,0.07,0.41,-0.02,0.17,0.00
2.528,0.36,0.10,0.37,-0.02,0.17,0.00
2.529,0.36,0.10,0.37,-0.01,0.19,0.00
2.533,0.36,0.10,0.37,-0.01,0.20,0.00
2.533,0.37,0.10,0.32,-0.01,0.20,0.00
2.533,0.37,0.10,0.32,-0.01,0.21,0.00
2.536,0.37,0.10,0.32,-0.00,0.22,0.00
2.536,0.36,0.10,0.22,-0.00,0.22,0.00
2.537,0.36,0.10,0.22,0.00,0.23,0.00
2.54,0.36,0.10,0.22,0.00,0.24,-0.00
2.54,0.36,0.08,0.11,0.00,0.24,-0.00
2.541,0.36,0.08,0.11,0.01,0.25,-0.00
2.544,0.36,0.08,0.11,0.01,0.25,-0.00
2.544,0.35,0.06,-0.01,0.01,0.25,-0.00
2.545,0.35,0.06,-0.01,0.01,0.26,-0.00
2.548,0.35,0.06,-0.01,0.01,0.26,-0.00
2.548,0.34,0.06,-0.11,0.01,0.26,-0.00
2.549,0.34,0.06,-0.11,0.01,0.27,-0.00
2.552,0.34,0.06,-0.11,0.01,0.27,-0.01
2.552,0.34,0.04,-0.21,0.01,0.27,-0.01
2.553,0.34,0.04,-0.21,0.01,0.27,-0.01
2.556,0.34,0.04,-0.21,0.01,0.27,-0.01
2.557,0.33,0.05,-0.28,0.01,0.27,-0.01
2.558,0.33,0.05,-0.28,0.01,0.27,-0.01
2.56,0.33,0.05,-0.28,0.01,0.26,-0.01
2.56,0.29,0.04,-0.37,0.01,0.26,-0.01
2.561,0.29,0.04,-0.37,0.01,0.26,-0.01
2.564,0.29,0.04,-0.37,0.01,0.25,-0.02
2.564,0.27,0.05,-0.42,0.01,0.25,-0.02
2.572,0.27,0.05,-0.42,0.01,0.25,-0.02
2.573,0.27,0.05,-0.42,0.01,0.24,-0.02
2.574,0.23,0.04,-0.46,0.01,0.24,-0.02
2.574,0.23,0.04,-0.46,0.01,0.23,-0.02
2.574,0.23,0.04,-0.46,0.00,0.22,-0.02
2.574,0.21,0.01,-0.50,0.00,0.22,-0.02
2.575,0.21,0.01,-0.50,-0.00,0.21,-0.02
2.576,0.21,0.01,-0.50,-0.01,0.20,-0.02
2.576,0.17,0.00,-0.53,-0.01,0.20,-0.02
2.577,0.17,0.00,-0.53,-0.01,0.19,-0.02
2.58,0.17,0.00,-0.53,-0.01,0.18,-0.02
2.58,0.16,-0.02,-0.54,-0.01,0.18,-0.02
2.581,0.16,-0.02,-0.54,-0.02,0.17,-0.02
2.586,0.16,-0.02,-0.54,-0.03,0.16,-0.02
2.587,0.12,-0.06,-0.54,-0.03,0.16,-0.02
2.587,0.12,-0.06,-0.54,-0.03,0.15,-0.02
2.588,0.12,-0.06,-0.54,-0.03,0.14,-0.02
2.588,0.10,-0.08,-0.52,-0.03,0.14,-0.02
2.589,0.10,-0.08,-0.52,-0.04,0.13,-0.02
2.592,0.10,-0.08,-0.52,-0.04,0.13,-0.02
2.592,0.06,-0.09,-0.49,-0.04,0.13,-0.02
2.593,0.06,-0.09,-0.49,-0.05,0.12,-0.02
2.596,0.06,-0.09,-0.49,-0.05,0.11,-0.01
2.596,0.00,-0.08,-0.43,-0.05,0.11,-0.01
2.597,0.00,-0.08,-0.43,-0.05,0.11,-0.01
2.599,0.00,-0.08,-0.43,-0.06,0.11,-0.01
2.6,-0.03,-0.07,-0.37,-0.06,0.11,-0.01
2.601,-0.03,-0.07,-0.37,-0.06,0.10,-0.01
2.604,-0.03,-0.07,-0.37,-0.06,0.10,-0.01
2.604,-0.07,-0.05,-0.29,-0.06,0.10,-0.01
2.606,-0.07,-0.05,-0.29,-0.06,0.10,-0.01
2.608,-0.07,-0.05,-0.29,-0.06,0.10,-0.01
2.608,-0.11,-0.03,-0.22,-0.06,0.10,-0.01
2.609,-0.11,-0.03,-0.22,-0.06,0.10,-0.01
2.611,-0.11,-0.03,-0.22,-0.06,0.10,-0.00
2.611,-0.15,-0.02,-0.13,-0.06,0.10,-0.00
2.613,-0.15,-0.02,-0.13,-0.06,0.10,-0.00
2.616,-0.15,-0.02,-0.13,-0.06,0.10,-0.00
2.618,-0.16,-0.04,-0.08,-0.06,0.10,-0.00
2.618,-0.16,-0.04,-0.08,-0.06,0.10,0.00
2.62,-0.16,-0.04,-0.08,-0.05,0.11,0.00
2.62,-0.17,-0.02,-0.02,-0.05,0.11,0.00
2.621,-0.17,-0.02,-0.02,-0.05,0.11,0.01
2.624,-0.17,-0.02,-0.02,-0.05,0.11,0.01
2.624,-0.17,-0.03,0.01,-0.05,0.11,0.01
2.625,-0.17,-0.03,0.01,-0.04,0.12,0.01
2.627,-0.17,-0.03,0.01,-0.04,0.13,0.01
2.628,-0.16,-0.05,0.05,-0.04,0.13,0.01
2.629,-0.16,-0.05,0.05,-0.04,0.13,0.01
2.632,-0.16,-0.05,0.05,-0.03,0.13,0.01
2.633,-0.17,-0.04,0.06,-0.03,0.13,0.01
2.633,-0.17,-0.04,0.06,-0.03,0.13,0.01
2.636,-0.17,-0.04,0.06,-0.02,0.14,0.02
2.636,-0.12,-0.05,0.05,-0.02,0.14,0.02
2.637,-0.12,-0.05,0.05,-0.02,0.14,0.02
2.639,-0.12,-0.05,0.05,-0.02,0.14,0.02
2.64,-0.10,-0.05,0.01,-0.02,0.14,0.02
2.641,-0.10,-0.05,0.01,-0.01,0.15,0.02
2.643,-0.10,-0.05,0.01,-0.01,0.15,0.02
2.644,-0.07,-0.07,-0.02,-0.01,0.15,0.02
2.645,-0.07,-0.07,-0.02,-0.01,0.15,0.02
2.647,-0.07,-0.07,-0.02,-0.01,0.15,0.02
2.648,-0.02,-0.06,-0.06,-0.01,0.15,0.02
2.649,-0.02,-0.06,-0.06,-0.01,0.15,0.02
2.651,-0.02,-0.06,-0.06,-0.01,0.15,0.02
2.652,0.02,-0.06,-0.12,-0.01,0.15,0.02
2.653,0.02,-0.06,-0.12,-0.01,0.15,0.02
2.656,0.02,-0.06,-0.12,-0.01,0.15,0.02
2.656,0.04,-0.06,-0.16,-0.01,0.15,0.02
2.657,0.04,-0.06,-0.16,-0.01,0.15,0.02
2.659,0.04,-0.06,-0.16,-0.01,0.14,0.02
2.659,0.06,-0.04,-0.20,-0.01,0.14,0.02
2.661,0.06,-0.04,-0.20,-0.01,0.14,0.02
2.663,0.06,-0.04,-0.20,-0.01,0.14,0.02
2.663,0.07,-0.01,-0.25,-0.01,0.14,0.02
2.672,0.07,-0.01,-0.25,-0.01,0.14,0.02
2.673,0.07,-0.01,-0.25,-0.01,0.13,0.02
2.673,0.09,0.00,-0.28,-0.01,0.13,0.02
2.674,0.09,0.00,-0.28,-0.01,0.13,0.02
2.674,0.09,0.00,-0.28,-0.01,0.13,0.02
2.674,0.08,0.02,-0.31,-0.01,0.13,0.02
2.675,0.08,0.02,-0.31,-0.02,0.12,0.02
2.675,0.08,0.02,-0.31,-0.02,0.12,0.02
2.676,0.08,0.03,-0.31,-0.02,0.12,0.02
2.677,0.08,0.03,-0.31,-0.02,0.12,0.02
2.679,0.08,0.03,-0.31,-0.02,0.12,0.02
2.68,0.07,0.05,-0.32,-0.02,0.12,0.02
2.681,0.07,0.05,-0.32,-0.03,0.11,0.02
2.686,0.07,0.05,-0.32,-0.03,0.11,0.02
2.686,0.07,0.04,-0.34,-0.03,0.11,0.02
2.687,0.07,0.04,-0.34,-0.03,0.11,0.02
2.687,0.07,0.04,-0.34,-0.03,0.10,0.02
2.688,0.08,0.04,-0.34,-0.03,0.10,0.02
2.689,0.08,0.04,-0.34,-0.03,0.10,0.03
2.691,0.08,0.04,-0.34,-0.03,0.10,0.03
2.692,0.09,0.04,-0.33,-0.03,0.10,0.03
2.693,0.09,0.04,-0.33,-0.04,0.10,0.02
2.695,0.09,0.04,-0.33,-0.04,0.10,0.03
2.696,0.10,0.02,-0.31,-0.04,0.10,0.03
2.697,0.10,0.02,-0.31,-0.04,0.10,0.03
2.699,0.10,0.02,-0.31,-0.04,0.10,0.03
2.7,0.11,0.02,-0.31,-0.04,0.10,0.03
2.701,0.11,0.02,-0.31,-0.04,0.10,0.03
2.703,0.11,0.02,-0.31,-0.04,0.10,0.02
2.704,0.13,0.01,-0.28,-0.04,0.10,0.02
2.705,0.13,0.01,-0.28,-0.04,0.10,0.03
2.707,0.13,0.01,-0.28,-0.05,0.10,0.03
2.707,0.15,0.01,-0.27,-0.05,0.10,0.03
2.709,0.15,0.01,-0.27,-0.05,0.10,0.03
2.711,0.15,0.01,-0.27,-0.05,0.11,0.02
2.711,0.17,0.00,-0.23,-0.05,0.11,0.02
2.713,0.17,0.00,-0.23,-0.05,0.11,0.03
2.716,0.17,0.00,-0.23,-0.05,0.11,0.03
2.716,0.18,0.01,-0.21,-0.05,0.11,0.03
2.717,0.18,0.01,-0.21,-0.05,0.11,0.03
2.719,0.18,0.01,-0.21,-0.05,0.11,0.02
2.719,0.20,0.01,-0.19,-0.05,0.11,0.02
2.721,0.20,0.01,-0.19,-0.05,0.11,0.02
2.723,0.20,0.01,-0.19,-0.05,0.12,0.02
2.724,0.22,0.02,-0.15,-0.05,0.12,0.02
2.725,0.22,0.02,-0.15,-0.05,0.12,0.02
2.727,0.22,0.02,-0.15,-0.05,0.13,0.02
2.727,0.22,0.04,-0.13,-0.05,0.13,0.02
2.729,0.22,0.04,-0.13,-0.05,0.13,0.02
2.731,0.22,0.04,-0.13,-0.05,0.13,0.02
2.731,0.23,0.04,-0.11,-0.05,0.13,0.02
2.733,0.23,0.04,-0.11,-0.05,0.14,0.02
2.735,0.23,0.04,-0.11,-0.05,0.14,0.01
2.735,0.23,0.05,-0.07,-0.05,0.14,0.01
2.737,0.23,0.05,-0.07,-0.05,0.14,0.01
2.739,0.23,0.05,-0.07,-0.05,0.14,0.01
2.74,0.21,0.05,-0.05,-0.05,0.14,0.01
2.741,0.21,0.05,-0.05,-0.04,0.15,0.01
2.743,0.21,0.05,-0.05,-0.04,0.15,0.01
2.743,0.19,0.07,-0.03,-0.04,0.15,0.01
2.745,0.19,0.07,-0.03,-0.04,0.15,0.01
2.747,0.19,0.07,-0.03,-0.04,0.16,0.00
2.747,0.17,0.08,-0.01,-0.04,0.16,0.00
2.75,0.17,0.08,-0.01,-0.04,0.16,0.00
2.758,0.17,0.08,-0.01,-0.04,0.16,-0.00
2.759,0.15,0.09,0.01,-0.04,0.16,-0.00
2.759,0.15,0.09,0.01,-0.04,0.16,-0.00
2.76,0.15,0.09,0.01,-0.03,0.16,-0.00
2.76,0.12,0.10,0.01,-0.03,0.16,-0.00
2.76,0.12,0.10,0.01,-0.03,0.16,-0.00
2.761,0.12,0.10,0.01,-0.03,0.17,-0.00
2.761,0.08,0.08,0.01,-0.03,0.17,-0.00
2.761,0.08,0.08,0.01,-0.03,0.16,-0.01
2.763,0.08,0.08,0.01,-0.03,0.17,-0.01
2.764,0.06,0.07,0.02,-0.03,0.17,-0.01
2.765,0.06,0.07,0.02,-0.02,0.16,-0.01
2.774,0.06,0.07,0.02,-0.03,0.17,-0.01
2.775,0.02,0.02,0.02,-0.03,0.17,-0.01
2.775,0.02,0.02,0.02,-0.02,0.17,-0.01
2.775,0.02,0.02,0.02,-0.02,0.16,-0.01
2.776,-0.01,0.01,-0.01,-0.02,0.16,-0.01
2.776,-0.01,0.01,-0.01,-0.02,0.16,-0.01
2.776,-0.01,0.01,-0.01,-0.02,0.16,-0.01
2.777,-0.03,-0.03,-0.02,-0.02,0.16,-0.01
2.777,-0.03,-0.03,-0.02,-0.02,0.16,-0.01
2.779,-0.03,-0.03,-0.02,-0.02,0.16,-0.02
2.78,-0.08,-0.06,-0.04,-0.02,0.16,-0.02
2.781,-0.08,-0.06,-0.04,-0.02,0.15,-0.02
2.783,-0.08,-0.06,-0.04,-0.01,0.15,-0.02
2.784,-0.11,-0.09,-0.05,-0.01,0.15,-0.02
2.785,-0.11,-0.09,-0.05,-0.01,0.15,-0.02
2.787,-0.11,-0.09,-0.05,-0.01,0.14,-0.02
2.788,-0.13,-0.12,-0.07,-0.01,0.14,-0.02
2.789,-0.13,-0.12,-0.07,-0.01,0.14,-0.02
2.791,-0.13,-0.12,-0.07,-0.01,0.13,-0.02
2.791,-0.17,-0.15,-0.09,-0.01,0.13,-0.02
2.793,-0.17,-0.15,-0.09,-0.01,0.13,-0.01
2.795,-0.17,-0.15,-0.09,-0.01,0.13,-0.01
2.795,-0.20,-0.15,-0.11,-0.01,0.13,-0.01
2.796,-0.20,-0.15,-0.11,-0.01,0.12,-0.01
2.799,-0.20,-0.15,-0.11,-0.01,0.12,-0.01
2.799,-0.22,-0.17,-0.13,-0.01,0.12,-0.01
2.801,-0.22,-0.17,-0.13,-0.01,0.12,-0.01
2.803,-0.22,-0.17,-0.13,-0.01,0.11,-0.01
2.803,-0.24,-0.15,-0.15,-0.01,0.11,-0.01
2.805,-0.24,-0.15,-0.15,-0.01,0.11,-0.00
2.807,-0.24,-0.15,-0.15,-0.01,0.11,0.00
2.807,-0.24,-0.14,-0.18,-0.01,0.11,0.00
2.808,-0.24,-0.14,-0.18,-0.01,0.11,0.00
2.811,-0.24,-0.14,-0.18,-0.02,0.10,0.00
2.811,-0.24,-0.13,-0.20,-0.02,0.10,0.00
2.812,-0.24,-0.13,-0.20,-0.02,0.10,0.01
2.815,-0.24,-0.13,-0.20,-0.02,0.10,0.01
2.815,-0.22,-0.12,-0.23,-0.02,0.10,0.01
2.817,-0.22,-0.12,-0.23,-0.02,0.10,0.01
2.819,-0.22,-0.12,-0.23,-0.02,0.10,0.01
2.819,-0.17,-0.09,-0.23,-0.02,0.10,0.01
2.821,-0.17,-0.09,-0.23,-0.03,0.10,0.01
2.823,-0.17,-0.09,-0.23,-0.03,0.10,0.01
2.823,-0.11,-0.08,-0.23,-0.03,0.10,0.01
2.824,-0.11,-0.08,-0.23,-0.03,0.10,0.01
2.827,-0.11,-0.08,-0.23,-0.03,0.10,0.01
2.827,-0.10,-0.06,-0.21,-0.03,0.10,0.01
2.828,-0.10,-0.06,-0.21,-0.04,0.10,0.01
2.831,-0.10,-0.06,-0.21,-0.04,0.10,0.02
2.831,-0.07,-0.04,-0.20,-0.04,0.10,0.02
2.833,-0.07,-0.04,-0.20,-0.04,0.11,0.01
2.835,-0.07,-0.04,-0.20,-0.04,0.11,0.02
2.835,-0.06,-0.03,-0.18,-0.04,0.11,0.02
2.837,-0.06,-0.03,-0.18,-0.04,0.11,0.02
2.839,-0.06,-0.03,-0.18,-0.04,0.11,0.02
2.839,-0.03,-0.02,-0.15,-0.04,0.11,0.02
2.841,-0.03,-0.02,-0.15,-0.04,0.11,0.02
2.843,-0.03,-0.02,-0.15,-0.04,0.11,0.02
2.843,-0.01,-0.01,-0.12,-0.04,0.11,0.02
2.844,-0.01,-0.01,-0.12,-0.04,0.11,0.02
2.847,-0.01,-0.01,-0.12,-0.05,0.11,0.02
2.847,-0.01,-0.00,-0.09,-0.05,0.11,0.02
2.852,-0.01,-0.00,-0.09,-0.05,0.12,0.02
2.853,-0.01,-0.00,-0.09,-0.05,0.12,0.02
2.853,0.04,0.01,-0.05,-0.05,0.12,0.02
2.853,0.04,0.01,-0.05,-0.05,0.12,0.01
2.855,0.04,0.01,-0.05,-0.05,0.13,0.02
2.855,0.03,0.03,-0.02,-0.05,0.13,0.02
2.856,0.03,0.03,-0.02,-0.05,0.13,0.01
2.859,0.03,0.03,-0.02,-0.05,0.13,0.01
2.859,0.04,0.04,0.01,-0.05,0.13,0.01
2.86,0.04,0.04,0.01,-0.05,0.13,0.01
2.862,0.04,0.04,0.01,-0.05,0.13,0.01
2.863,0.03,0.05,0.06,-0.05,0.13,0.01
2.864,0.03,0.05,0.06,-0.04,0.14,0.01
2.867,0.03,0.05,0.06,-0.04,0.14,0.01
2.867,0.03,0.07,0.08,-0.04,0.14,0.01
2.868,0.03,0.07,0.08,-0.04,0.14,0.02
2.871,0.03,0.07,0.08,-0.04,0.14,0.01
2.871,0.03,0.08,0.12,-0.04,0.14,0.01
2.872,0.03,0.08,0.12,-0.04,0.14,0.02
2.875,0.03,0.08,0.12,-0.04,0.15,0.01
2.875,0.03,0.08,0.11,-0.04,0.15,0.01
2.876,0.03,0.08,0.11,-0.04,0.15,0.02
2.878,0.03,0.08,0.11,-0.04,0.15,0.01
2.879,0.06,0.07,0.13,-0.04,0.15,0.01
2.88,0.06,0.07,0.13,-0.03,0.15,0.01
2.884,0.06,0.07,0.13,-0.03,0.15,0.02
2.884,0.06,0.08,0.13,-0.03,0.15,0.02
2.884,0.06,0.08,0.13,-0.03,0.15,0.01
2.887,0.06,0.08,0.13,-0.03,0.15,0.01
2.887,0.08,0.05,0.12,-0.03,0.15,0.01
2.889,0.08,0.05,0.12,-0.03,0.15,0.01
2.891,0.08,0.05,0.12,-0.02,0.15,0.01
2.891,0.10,0.05,0.10,-0.02,0.15,0.01
2.892,0.10,0.05,0.10,-0.02,0.15,0.00
2.895,0.10,0.05,0.10,-0.02,0.14,0.00
2.895,0.13,0.03,0.07,-0.02,0.14,0.00
2.896,0.13,0.03,0.07,-0.02,0.14,0.00
2.899,0.13,0.03,0.07,-0.02,0.14,-0.00
2.9,0.13,0.00,0.05,-0.02,0.14,-0.00
2.9,0.13,0.00,0.05,-0.02,0.14,-0.00
2.903,0.13,0.00,0.05,-0.01,0.13,-0.01
2.903,0.13,0.00,0.01,-0.01,0.13,-0.01
2.904,0.13,0.00,0.01,-0.02,0.13,-0.01
2.907,0.13,0.00,0.01,-0.01,0.12,-0.01
2.907,0.14,-0.03,-0.03,-0.01,0.12,-0.01
2.908,0.14,-0.03,-0.03,-0.01,0.12,-0.01
2.91,0.14,-0.03,-0.03,-0.01,0.11,-0.02
2.911,0.10,-0.06,-0.05,-0.01,0.11,-0.02
2.912,0.10,-0.06,-0.05,-0.01,0.11,-0.02
2.914,0.10,-0.06,-0.05,-0.01,0.10,-0.02
2.915,0.08,-0.04,-0.09,-0.01,0.10,-0.02
2.916,0.08,-0.04,-0.09,-0.01,0.10,-0.03
2.918,0.08,-0.04,-0.09,-0.02,0.09,-0.03
2.919,0.05,-0.04,-0.10,-0.02,0.09,-0.03
2.92,0.05,-0.04,-0.10,-0.01,0.09,-0.03
2.923,0.05,-0.04,-0.10,-0.02,0.08,-0.03
2.923,0.01,-0.01,-0.11,-0.02,0.08,-0.03
2.924,0.01,-0.01,-0.11,-0.02,0.08,-0.03
2.926,0.01,-0.01,-0.11,-0.02,0.07,-0.04
2.927,-0.05,0.00,-0.11,-0.02,0.07,-0.04
2.928,-0.05,0.00,-0.11,-0.02,0.07,-0.04
2.93,-0.05,0.00,-0.11,-0.02,0.06,-0.04
2.931,-0.09,0.02,-0.11,-0.02,0.06,-0.04
2.933,-0.09,0.02,-0.11,-0.02,0.06,-0.04
2.935,-0.09,0.02,-0.11,-0.03,0.06,-0.04
2.935,-0.15,0.03,-0.12,-0.03,0.06,-0.04
2.936,-0.15,0.03,-0.12,-0.03,0.05,-0.04
2.939,-0.15,0.03,-0.12,-0.03,0.05,-0.04
2.939,-0.18,0.03,-0.12,-0.03,0.05,-0.04
2.94,-0.18,0.03,-0.12,-0.03,0.05,-0.04
2.942,-0.18,0.03,-0.12,-0.03,0.04,-0.04
2.943,-0.22,0.01,-0.11,-0.03,0.04,-0.04
2.944,-0.22,0.01,-0.11,-0.04,0.04,-0.05
2.946,-0.22,0.01,-0.11,-0.03,0.04,-0.04
2.947,-0.24,-0.00,-0.09,-0.03,0.04,-0.04
2.948,-0.24,-0.00,-0.09,-0.03,0.03,-0.04
2.95,-0.24,-0.00,-0.09,-0.04,0.03,-0.05
2.951,-0.27,-0.03,-0.08,-0.04,0.03,-0.05
2.952,-0.27,-0.03,-0.08,-0.04,0.03,-0.05
2.955,-0.27,-0.03,-0.08,-0.04,0.03,-0.04
2.955,-0.30,-0.06,-0.05,-0.04,0.03,-0.04
2.956,-0.30,-0.06,-0.05,-0.03,0.02,-0.04
2.958,-0.30,-0.06,-0.05,-0.03,0.02,-0.05
2.959,-0.33,-0.07,-0.02,-0.03,0.02,-0.05
2.96,-0.33,-0.07,-0.02,-0.03,0.02,-0.05
2.962,-0.33,-0.07,-0.02,-0.03,0.02,-0.05
2.963,-0.37,-0.08,0.01,-0.03,0.02,-0.05
2.964,-0.37,-0.08,0.01,-0.03,0.01,-0.05
2.972,-0.37,-0.08,0.01,-0.03,0.02,-0.05
2.973,-0.39,-0.09,0.03,-0.03,0.02,-0.05
2.974,-0.39,-0.09,0.03,-0.02,0.01,-0.05
2.974,-0.39,-0.09,0.03,-0.02,0.01,-0.04
2.974,-0.42,-0.07,0.03,-0.02,0.01,-0.04
2.975,-0.42,-0.07,0.03,-0.02,0.02,-0.04
2.975,-0.42,-0.07,0.03,-0.02,0.01,-0.04
2.975,-0.43,-0.07,0.05,-0.02,0.01,-0.04
2.976,-0.43,-0.07,0.05,-0.02,0.01,-0.04
2.978,-0.43,-0.07,0.05,-0.02,0.02,-0.05
2.979,-0.44,-0.05,0.04,-0.02,0.02,-0.05
2.98,-0.44,-0.05,0.04,-0.02,0.02,-0.04
2.985,-0.44,-0.05,0.04,-0.01,0.02,-0.04
2.985,-0.43,-0.05,0.03,-0.01,0.02,-0.04
2.986,-0.43,-0.05,0.03,-0.01,0.01,-0.05
2.986,-0.43,-0.05,0.03,-0.01,0.01,-0.05
2.987,-0.45,-0.04,0.02,-0.01,0.01,-0.05
2.988,-0.45,-0.04,0.02,-0.01,0.01,-0.04
2.99,-0.45,-0.04,0.02,-0.01,0.01,-0.05
2.991,-0.46,-0.05,0.01,-0.01,0.01,-0.05
2.992,-0.46,-0.05,0.01,-0.01,0.01,-0.04
2.994,-0.46,-0.05,0.01,-0.01,0.01,-0.04
2.995,-0.47,-0.06,-0.00,-0.01,0.01,-0.04
2.996,-0.47,-0.06,-0.00,-0.00,0.01,-0.04
2.998,-0.47,-0.06,-0.00,-0.01,0.01,-0.04
2.998,-0.48,-0.03,-0.03,-0.01,0.01,-0.04
3.0,-0.48,-0.03,-0.03,-0.01,0.00,-0.04
3.002,-0.48,-0.03,-0.03,-0.01,0.00,-0.04
3.003,-0.47,-0.03,-0.07,-0.01,0.00,-0.04
3.004,-0.47,-0.03,-0.07,-0.01,0.00,-0.04
3.007,-0.47,-0.03,-0.07,-0.01,-0.00,-0.03
3.007,-0.46,-0.03,-0.10,-0.01,-0.00,-0.03
3.008,-0.46,-0.03,-0.10,-0.01,-0.00,-0.03
3.01,-0.46,-0.03,-0.10,-0.01,-0.01,-0.03
3.011,-0.44,-0.01,-0.12,-0.01,-0.01,-0.03
3.012,-0.44,-0.01,-0.12,-0.01,-0.00,-0.03
3.014,-0.44,-0.01,-0.12,-0.01,-0.01,-0.03
3.017,-0.41,0.00,-0.15,-0.01,-0.01,-0.03
3.018,-0.41,0.00,-0.15,-0.01,-0.01,-0.02
3.018,-0.41,0.00,-0.15,-0.01,-0.01,-0.02
3.018,-0.37,-0.00,-0.18,-0.01,-0.01,-0.02
3.02,-0.37,-0.00,-0.18,-0.02,-0.02,-0.02
3.022,-0.37,-0.00,-0.18,-0.02,-0.01,-0.02
3.023,-0.34,0.00,-0.23,-0.02,-0.01,-0.02
3.024,-0.34,0.00,-0.23,-0.02,-0.02,-0.02
3.026,-0.33,0.00,-0.25,-0.02,-0.02,-0.02
3.026,-0.33,0.00,-0.25,-0.02,-0.02,-0.01
3.028,-0.33,0.00,-0.25,-0.02,-0.03,-0.01
3.03,-0.33,0.00,-0.25,-0.02,-0.03,-0.00
3.03,-0.30,-0.01,-0.26,-0.02,-0.03,-0.00
3.033,-0.30,-0.01,-0.26,-0.02,-0.04,0.00
3.034,-0.30,-0.01,-0.26,-0.02,-0.04,0.01
3.035,-0.29,-0.03,-0.30,-0.02,-0.04,0.01
3.036,-0.29,-0.03,-0.30,-0.02,-0.05,0.01
3.038,-0.29,-0.03,-0.30,-0.03,-0.05,0.01
3.039,-0.27,-0.02,-0.30,-0.03,-0.05,0.01
3.04,-0.27,-0.02,-0.30,-0.03,-0.05,0.02
3.042,-0.27,-0.02,-0.30,-0.03,-0.05,0.02
3.042,-0.20,-0.01,-0.33,-0.03,-0.05,0.02
3.044,-0.20,-0.01,-0.33,-0.03,-0.05,0.02
3.046,-0.20,-0.01,-0.33,-0.03,-0.05,0.03
3.046,-0.15,0.01,-0.38,-0.03,-0.05,0.03
3.048,-0.15,0.01,-0.38,-0.03,-0.05,0.03
3.05,-0.15,0.01,-0.38,-0.04,-0.04,0.03
3.051,-0.07,0.00,-0.41,-0.04,-0.04,0.03
3.052,-0.07,0.00,-0.41,-0.04,-0.04,0.04
3.054,-0.07,0.00,-0.41,-0.04,-0.04,0.04
3.055,0.01,-0.03,-0.41,-0.04,-0.04,0.04
3.056,0.01,-0.03,-0.41,-0.04,-0.04,0.05
3.058,0.01,-0.03,-0.41,-0.04,-0.04,0.05
3.058,0.06,-0.07,-0.43,-0.04,-0.04,0.05
3.06,0.06,-0.07,-0.43,-0.04,-0.04,0.05
3.062,0.06,-0.07,-0.43,-0.04,-0.04,0.05
3.062,0.14,-0.12,-0.43,-0.04,-0.04,0.05
3.064,0.14,-0.12,-0.43,-0.04,-0.05,0.05
3.072,0.14,-0.12,-0.43,-0.04,-0.05,0.05
3.073,0.20,-0.18,-0.41,-0.04,-0.05,0.05
3.073,0.20,-0.18,-0.41,-0.03,-0.06,0.05
3.074,0.20,-0.18,-0.41,-0.03,-0.06,0.05
3.074,0.26,-0.27,-0.39,-0.03,-0.06,0.05
3.074,0.26,-0.27,-0.39,-0.02,-0.07,0.05
3.075,0.26,-0.27,-0.39,-0.02,-0.07,0.05
3.075,0.32,-0.31,-0.35,-0.02,-0.07,0.05
3.076,0.32,-0.31,-0.35,-0.01,-0.08,0.05
3.078,0.32,-0.31,-0.35,0.00,-0.09,0.05
3.079,0.37,-0.36,-0.34,0.00,-0.09,0.05
3.08,0.37,-0.36,-0.34,0.00,-0.09,0.04
3.087,0.37,-0.36,-0.34,0.01,-0.10,0.04
3.088,0.42,-0.38,-0.32,0.01,-0.10,0.04
3.088,0.42,-0.38,-0.32,0.02,-0.11,0.03
3.089,0.42,-0.38,-0.32,0.02,-0.11,0.03
3.089,0.46,-0.35,-0.28,0.02,-0.11,0.03
3.089,0.46,-0.35,-0.28,0.02,-0.12,0.03
3.09,0.46,-0.35,-0.28,0.03,-0.12,0.02
3.09,0.47,-0.28,-0.29,0.03,-0.12,0.02
3.092,0.47,-0.28,-0.29,0.04,-0.13,0.01
3.094,0.47,-0.28,-0.29,0.04,-0.14,0.00
3.095,0.46,-0.18,-0.27,0.04,-0.14,0.00
3.096,0.46,-0.18,-0.27,0.04,-0.14,0.00
3.098,0.46,-0.18,-0.27,0.04,-0.14,-0.00
3.098,0.44,-0.07,-0.26,0.04,-0.14,-0.00
3.1,0.44,-0.07,-0.26,0.04,-0.15,-0.01
3.102,0.44,-0.07,-0.26,0.04,-0.15,-0.01
3.102,0.40,0.02,-0.24,0.04,-0.15,-0.01
3.104,0.40,0.02,-0.24,0.04,-0.16,-0.01
3.106,0.40,0.02,-0.24,0.04,-0.16,-0.02
3.106,0.34,0.13,-0.22,0.04,-0.16,-0.02
3.107,0.34,0.13,-0.22,0.04,-0.17,-0.02
3.11,0.34,0.13,-0.22,0.03,-0.17,-0.02
3.11,0.28,0.17,-0.21,0.03,-0.17,-0.02
3.111,0.28,0.17,-0.21,0.03,-0.17,-0.02
3.114,0.28,0.17,-0.21,0.03,-0.17,-0.02
3.114,0.23,0.22,-0.21,0.03,-0.17,-0.02
3.116,0.23,0.22,-0.21,0.03,-0.17,-0.02
3.118,0.23,0.22,-0.21,0.02,-0.17,-0.02
3.118,0.19,0.25,-0.19,0.02,-0.17,-0.02
3.119,0.19,0.25,-0.19,0.02,-0.17,-0.02
3.122,0.19,0.25,-0.19,0.02,-0.17,-0.02
3.123,0.17,0.25,-0.17,0.02,-0.17,-0.02
3.124,0.17,0.25,-0.17,0.02,-0.16,-0.02
3.126,0.17,0.25,-0.17,0.01,-0.16,-0.02
3.127,0.13,0.26,-0.14,0.01,-0.16,-0.02
3.127,0.13,0.26,-0.14,0.01,-0.16,-0.02
3.13,0.13,0.26,-0.14,0.01,-0.15,-0.02
3.13,0.11,0.25,-0.11,0.01,-0.15,-0.02
3.131,0.11,0.25,-0.11,0.00,-0.15,-0.02
3.134,0.11,0.25,-0.11,0.00,-0.14,-0.02
3.134,0.07,0.22,-0.09,0.00,-0.14,-0.02
3.135,0.07,0.22,-0.09,0.00,-0.13,-0.02
3.138,0.07,0.22,-0.09,-0.00,-0.12,-0.01
3.138,0.04,0.17,-0.05,-0.00,-0.12,-0.01
3.139,0.04,0.17,-0.05,0.00,-0.11,-0.01
3.142,0.04,0.17,-0.05,-0.00,-0.10,-0.01
3.142,0.01,0.15,-0.02,-0.00,-0.10,-0.01
3.143,0.01,0.15,-0.02,-0.01,-0.10,-0.00
3.146,0.01,0.15,-0.02,-0.01,-0.09,0.00
3.146,-0.00,0.10,-0.01,-0.01,-0.09,0.00
3.149,-0.00,0.10,-0.01,-0.01,-0.08,0.00
3.157,-0.00,0.10,-0.01,-0.01,-0.07,0.01
3.158,-0.01,0.08,-0.00,-0.01,-0.07,0.01
3.158,-0.01,0.08,-0.00,-0.01,-0.06,0.01
3.159,-0.01,0.08,-0.00,-0.01,-0.05,0.02
3.159,0.00,0.05,-0.01,-0.01,-0.05,0.02
3.159,0.00,0.05,-0.01,-0.01,-0.05,0.02
3.16,0.00,0.05,-0.01,-0.01,-0.04,0.02
3.16,0.04,0.05,-0.01,-0.01,-0.04,0.02
3.16,0.04,0.05,-0.01,-0.01,-0.03,0.03
3.162,0.04,0.05,-0.01,-0.01,-0.03,0.03
3.162,0.07,0.01,-0.00,-0.01,-0.03,0.03
3.163,0.07,0.01,-0.00,-0.01,-0.03,0.03
3.171,0.07,0.01,-0.00,-0.02,-0.03,0.03
3.172,0.14,0.02,-0.01,-0.02,-0.03,0.03
3.172,0.14,0.02,-0.01,-0.02,-0.02,0.03
3.173,0.14,0.02,-0.01,-0.02,-0.02,0.03
3.173,0.21,0.02,-0.03,-0.02,-0.02,0.03
3.173,0.21,0.02,-0.03,-0.02,-0.02,0.03
3.174,0.21,0.02,-0.03,-0.02,-0.02,0.03
3.174,0.27,0.03,-0.03,-0.02,-0.02,0.03
3.175,0.27,0.03,-0.03,-0.02,-0.02,0.03
3.178,0.27,0.03,-0.03,-0.02,-0.02,0.03
3.178,0.33,0.01,-0.03,-0.02,-0.02,0.03
3.179,0.33,0.01,-0.03,-0.02,-0.03,0.03
3.181,0.33,0.01,-0.03,-0.02,-0.03,0.03
3.182,0.39,0.01,-0.03,-0.02,-0.03,0.03
3.183,0.39,0.01,-0.03,-0.02,-0.03,0.03
3.186,0.39,0.01,-0.03,-0.02,-0.04,0.03
3.186,0.44,-0.01,-0.03,-0.02,-0.04,0.03
3.187,0.44,-0.01,-0.03,-0.02,-0.05,0.03
3.19,0.44,-0.01,-0.03,-0.02,-0.05,0.03
3.19,0.48,-0.02,0.00,-0.02,-0.05,0.03
3.191,0.48,-0.02,0.00,-0.02,-0.05,0.03
3.194,0.48,-0.02,0.00,-0.02,-0.06,0.02
3.194,0.50,-0.04,0.04,-0.02,-0.06,0.02
3.195,0.50,-0.04,0.04,-0.02,-0.06,0.02
3.197,0.50,-0.04,0.04,-0.02,-0.07,0.02
3.198,0.52,-0.06,0.06,-0.02,-0.07,0.02
3.2,0.52,-0.06,0.06,-0.01,-0.07,0.02
3.201,0.52,-0.06,0.06,-0.01,-0.07,0.02
3.202,0.53,-0.09,0.13,-0.01,-0.07,0.02
3.204,0.53,-0.09,0.13,-0.01,-0.07,0.01
3.206,0.53,-0.09,0.13,-0.01,-0.08,0.01
3.206,0.52,-0.11,0.17,-0.01,-0.08,0.01
3.207,0.52,-0.11,0.17,-0.00,-0.08,0.01
3.209,0.52,-0.11,0.17,0.00,-0.08,0.01
3.21,0.51,-0.13,0.23,0.00,-0.08,0.01
3.211,0.51,-0.13,0.23,0.00,-0.08,0.00
3.214,0.51,-0.13,0.23,0.01,-0.08,-0.00
3.214,0.49,-0.16,0.26,0.01,-0.08,-0.00
3.216,0.49,-0.16,0.26,0.01,-0.08,-0.01
3.218,0.49,-0.16,0.26,0.01,-0.07,-0.01
3.218,0.47,-0.16,0.31,0.01,-0.07,-0.01
3.219,0.47,-0.16,0.31,0.02,-0.07,-0.01
3.222,0.47,-0.16,0.31,0.02,-0.07,-0.01
3.222,0.44,-0.16,0.34,0.02,-0.07,-0.01
3.223,0.44,-0.16,0.34,0.03,-0.06,-0.01
3.225,0.44,-0.16,0.34,0.03,-0.05,-0.01
3.226,0.39,-0.14,0.37,0.03,-0.05,-0.01
3.227,0.39,-0.14,0.37,0.04,-0.05,-0.02
3.23,0.39,-0.14,0.37,0.04,-0.03,-0.01
3.23,0.33,-0.09,0.41,0.04,-0.03,-0.01
3.231,0.33,-0.09,0.41,0.05,-0.03,-0.01
3.234,0.33,-0.09,0.41,0.05,-0.02,-0.02
3.234,0.27,-0.06,0.42,0.05,-0.02,-0.02
3.235,0.27,-0.06,0.42,0.06,-0.01,-0.02
3.238,0.27,-0.06,0.42,0.06,-0.00,-0.02
3.238,0.22,-0.03,0.42,0.06,-0.00,-0.02
3.239,0.22,-0.03,0.42,0.07,0.00,-0.02
3.242,0.22,-0.03,0.42,0.07,0.01,-0.02
3.242,0.19,-0.02,0.39,0.07,0.01,-0.02
3.243,0.19,-0.02,0.39,0.08,0.02,-0.02
3.245,0.19,-0.02,0.39,0.08,0.03,-0.02
3.246,0.14,-0.02,0.36,0.08,0.03,-0.02
3.247,0.14,-0.02,0.36,0.09,0.04,-0.02
3.257,0.14,-0.02,0.36,0.09,0.04,-0.02
3.257,0.13,-0.00,0.30,0.09,0.04,-0.02
3.258,0.13,-0.00,0.30,0.10,0.05,-0.02
3.258,0.13,-0.00,0.30,0.10,0.06,-0.01
3.258,0.11,-0.00,0.22,0.10,0.06,-0.01
3.259,0.11,-0.00,0.22,0.10,0.07,-0.01
3.259,0.11,-0.00,0.22,0.11,0.07,-0.01
3.259,0.10,-0.00,0.14,0.11,0.07,-0.01
3.259,0.10,-0.00,0.14,0.11,0.08,-0.02
3.261,0.10,-0.00,0.14,0.11,0.08,-0.01
3.262,0.10,0.01,0.05,0.11,0.08,-0.01
3.263,0.10,0.01,0.05,0.11,0.09,-0.02
3.271,0.10,0.01,0.05,0.11,0.09,-0.01
3.271,0.10,0.02,-0.06,0.11,0.09,-0.01
3.272,0.10,0.02,-0.06,0.12,0.10,-0.01
3.272,0.10,0.02,-0.06,0.12,0.10,-0.01
3.272,0.09,0.06,-0.14,0.12,0.10,-0.01
3.273,0.09,0.06,-0.14,0.11,0.11,-0.01
3.273,0.09,0.06,-0.14,0.12,0.11,-0.01
3.274,0.06,0.09,-0.23,0.12,0.11,-0.01
3.275,0.06,0.09,-0.23,0.11,0.11,-0.01
3.277,0.06,0.09,-0.23,0.11,0.12,-0.01
3.278,0.04,0.13,-0.31,0.11,0.12,-0.01
3.279,0.04,0.13,-0.31,0.11,0.11,-0.01
3.282,0.04,0.13,-0.31,0.10,0.11,-0.01
3.282,0.02,0.16,-0.39,0.10,0.11,-0.01
3.284,0.02,0.16,-0.39,0.10,0.11,-0.01
3.285,0.02,0.16,-0.39,0.10,0.11,-0.01
3.286,0.00,0.16,-0.45,0.10,0.11,-0.01
3.287,0.00,0.16,-0.45,0.09,0.11,-0.01
3.289,0.00,0.16,-0.45,0.09,0.11,-0.01
3.29,-0.02,0.18,-0.51,0.09,0.11,-0.01
3.291,-0.02,0.18,-0.51,0.08,0.11,-0.01
3.293,-0.02,0.18,-0.51,0.08,0.10,-0.01
3.294,-0.04,0.19,-0.55,0.08,0.10,-0.01
3.295,-0.04,0.19,-0.55,0.07,0.10,-0.01
3.297,-0.04,0.19,-0.55,0.06,0.09,-0.01
3.297,-0.07,0.16,-0.58,0.06,0.09,-0.01
3.3,-0.07,0.16,-0.58,0.06,0.09,-0.01
3.301,-0.07,0.16,-0.58,0.06,0.09,-0.00
3.301,-0.09,0.15,-0.62,0.06,0.09,-0.00
3.303,-0.09,0.15,-0.62,0.05,0.08,-0.00
3.305,-0.09,0.15,-0.62,0.04,0.08,-0.00
3.306,-0.12,0.15,-0.63,0.04,0.08,-0.00
3.307,-0.12,0.15,-0.63,0.04,0.07,-0.00
3.309,-0.12,0.15,-0.63,0.03,0.07,-0.00
3.31,-0.13,0.12,-0.61,0.03,0.07,-0.00
3.311,-0.13,0.12,-0.61,0.02,0.06,-0.00
3.313,-0.13,0.12,-0.61,0.02,0.06,-0.00
3.314,-0.16,0.09,-0.61,0.02,0.06,-0.00
3.315,-0.16,0.09,-0.61,0.02,0.05,-0.00
3.317,-0.16,0.09,-0.61,0.01,0.04,-0.00
3.318,-0.18,0.06,-0.58,0.01,0.04,-0.00
3.319,-0.18,0.06,-0.58,0.01,0.04,-0.00
3.321,-0.18,0.06,-0.58,0.00,0.03,-0.00
3.322,-0.20,0.05,-0.54,0.00,0.03,-0.00
3.323,-0.20,0.05,-0.54,-0.00,0.02,0.00
3.325,-0.20,0.05,-0.54,-0.00,0.02,-0.00
3.326,-0.24,0.04,-0.48,-0.00,0.02,-0.00
3.327,-0.24,0.04,-0.48,-0.01,0.01,0.00
3.329,-0.24,0.04,-0.48,-0.01,0.00,-0.00
3.329,-0.24,0.05,-0.43,-0.01,0.00,-0.00
3.331,-0.24,0.05,-0.43,-0.01,0.00,-0.00
3.333,-0.24,0.05,-0.43,-0.01,-0.00,0.00
3.333,-0.26,0.04,-0.40,-0.01,-0.00,0.00
3.335,-0.26,0.04,-0.40,-0.01,-0.01,-0.00
3.337,-0.26,0.04,-0.40,-0.01,-0.01,0.00
3.337,-0.26,0.05,-0.34,-0.01,-0.01,0.00
3.339,-0.26,0.05,-0.34,-0.02,-0.01,0.00
3.341,-0.26,0.05,-0.34,-0.02,-0.02,0.00
3.341,-0.28,0.06,-0.30,-0.02,-0.02,0.00
3.343,-0.28,0.06,-0.30,-0.02,-0.02,0.00
3.345,-0.28,0.06,-0.30,-0.02,-0.02,0.00
3.345,-0.26,0.05,-0.25,-0.02,-0.02,0.00
3.347,-0.26,0.05,-0.25,-0.02,-0.02,0.00
3.356,-0.26,0.05,-0.25,-0.02,-0.03,0.00
3.357,-0.25,0.04,-0.22,-0.02,-0.03,0.00
3.357,-0.25,0.04,-0.22,-0.02,-0.02,0.00
3.358,-0.25,0.04,-0.22,-0.02,-0.02,0.01
3.358,-0.23,0.03,-0.19,-0.02,-0.02,0.01
3.358,-0.23,0.03,-0.19,-0.02,-0.02,0.01
3.359,-0.23,0.03,-0.19,-0.02,-0.02,0.01
3.359,-0.20,-0.00,-0.16,-0.02,-0.02,0.01
3.359,-0.20,-0.00,-0.16,-0.02,-0.02,0.01
3.361,-0.20,-0.00,-0.16,-0.02,-0.02,0.01
3.362,-0.16,-0.02,-0.14,-0.02,-0.02,0.01
3.363,-0.16,-0.02,-0.14,-0.02,-0.02,0.01
3.365,-0.16,-0.02,-0.14,-0.02,-0.02,0.01
3.366,-0.11,-0.03,-0.15,-0.02,-0.02,0.01
3.371,-0.11,-0.03,-0.15,-0.02,-0.01,0.01
3.372,-0.11,-0.03,-0.15,-0.02,-0.01,0.01
3.372,-0.08,-0.03,-0.12,-0.02,-0.01,0.01
3.372,-0.08,-0.03,-0.12,-0.02,-0.01,0.01
3.373,-0.08,-0.03,-0.12,-0.02,-0.02,0.01
3.374,-0.05,-0.02,-0.12,-0.02,-0.02,0.01
3.375,-0.05,-0.02,-0.12,-0.02,-0.01,0.01
3.377,-0.05,-0.02,-0.12,-0.02,-0.01,0.01
3.377,-0.02,-0.02,-0.11,-0.02,-0.01,0.01
3.379,-0.02,-0.02,-0.11,-0.02,-0.01,0.01
3.381,-0.02,-0.02,-0.11,-0.02,-0.01,0.01
3.381,0.02,-0.01,-0.08,-0.02,-0.01,0.01
3.383,0.02,-0.01,-0.08,-0.01,-0.01,0.01
3.385,0.02,-0.01,-0.08,-0.02,-0.01,0.01
3.385,0.05,0.01,-0.07,-0.02,-0.01,0.01
3.387,0.05,0.01,-0.07,-0.01,-0.01,0.01
3.389,0.05,0.01,-0.07,-0.01,-0.01,0.01
3.39,0.08,-0.00,-0.06,-0.01,-0.01,0.01
3.39,0.08,-0.00,-0.06,-0.01,-0.01,0.01
3.393,0.08,-0.00,-0.06,-0.01,-0.02,0.01
3.393,0.10,0.00,-0.06,-0.01,-0.02,0.01
3.395,0.10,0.00,-0.06,-0.01,-0.02,0.00
3.397,0.10,0.00,-0.06,-0.01,-0.02,0.00
3.397,0.12,-0.00,-0.05,-0.01,-0.02,0.00
3.4,0.12,-0.00,-0.05,-0.01,-0.02,0.00
3.401,0.12,-0.00,-0.05,-0.01,-0.02,0.00
3.401,0.13,-0.00,-0.04,-0.01,-0.02,0.00
3.403,0.13,-0.00,-0.04,-0.01,-0.02,0.00
3.405,0.13,-0.00,-0.04,-0.01,-0.03,0.00
3.406,0.14,-0.01,-0.02,-0.01,-0.03,0.00
3.407,0.14,-0.01,-0.02,-0.00,-0.03,0.00
3.409,0.14,-0.01,-0.02,-0.01,-0.03,-0.00
3.41,0.16,-0.01,-0.01,-0.01,-0.03,-0.00
3.411,0.16,-0.01,-0.01,-0.01,-0.03,0.00
3.413,0.16,-0.01,-0.01,-0.01,-0.03,-0.00
3.416,0.14,-0.01,-0.00,-0.01,-0.03,-0.00
3.416,0.14,-0.01,-0.00,-0.01,-0.03,-0.00
3.417,0.14,-0.01,-0.00,-0.01,-0.03,-0.00
3.418,0.16,-0.01,0.02,-0.01,-0.03,-0.00
3.418,0.16,-0.01,0.02,-0.01,-0.03,-0.00
3.421,0.16,-0.01,0.02,-0.00,-0.03,-0.00
3.421,0.14,0.01,0.05,-0.00,-0.03,-0.00
3.423,0.14,0.01,0.05,-0.01,-0.03,-0.00
3.425,0.14,0.01,0.05,-0.00,-0.03,-0.00
3.425,0.14,-0.01,0.07,-0.00,-0.03,-0.00
3.426,0.14,-0.01,0.07,-0.00,-0.04,-0.01
3.429,0.14,-0.01,0.07,-0.00,-0.03,-0.00
3.429,0.15,-0.00,0.09,-0.00,-0.03,-0.00
3.43,0.15,-0.00,0.09,0.00,-0.03,-0.00
3.433,0.15,-0.00,0.09,-0.00,-0.03,-0.00
3.434,0.12,-0.02,0.11,-0.00,-0.03,-0.00
3.435,0.12,-0.02,0.11,0.00,-0.03,-0.00
3.437,0.12,-0.02,0.11,0.00,-0.03,-0.00
3.437,0.13,-0.04,0.14,0.00,-0.03,-0.00
3.439,0.13,-0.04,0.14,0.00,-0.03,-0.00
3.441,0.13,-0.04,0.14,0.00,-0.02,-0.00
3.441,0.12,-0.03,0.15,0.00,-0.02,-0.00
3.442,0.12,-0.03,0.15,0.01,-0.02,-0.00
3.445,0.12,-0.03,0.15,0.01,-0.02,-0.00
3.445,0.13,-0.03,0.17,0.01,-0.02,-0.00
3.446,0.13,-0.03,0.17,0.01,-0.01,-0.01
3.449,0.13,-0.03,0.17,0.01,-0.01,-0.00
3.45,0.13,-0.03,0.19,0.01,-0.01,-0.00
3.45,0.13,-0.03,0.19,0.01,-0.01,-0.00
3.453,0.13,-0.03,0.19,0.01,-0.01,-0.00
3.453,0.13,-0.04,0.21,0.01,-0.01,-0.00
3.455,0.13,-0.04,0.21,0.01,-0.00,-0.01
3.457,0.13,-0.04,0.21,0.02,0.00,-0.00
3.458,0.13,-0.03,0.20,0.02,0.00,-0.00
3.458,0.13,-0.03,0.20,0.02,0.01,-0.00
3.461,0.13,-0.03,0.20,0.02,0.01,-0.00
3.461,0.11,-0.03,0.21,0.02,0.01,-0.00
3.462,0.11,-0.03,0.21,0.02,0.02,-0.00
3.465,0.11,-0.03,0.21,0.02,0.02,-0.00
3.465,0.10,-0.02,0.20,0.02,0.02,-0.00
3.473,0.10,-0.02,0.20,0.02,0.02,-0.00
3.474,0.10,-0.02,0.20,0.02,0.03,-0.00
3.475,0.09,-0.02,0.20,0.02,0.03,-0.00
3.475,0.09,-0.02,0.20,0.03,0.03,-0.00
3.475,0.09,-0.02,0.20,0.03,0.04,-0.00
3.476,0.09,0.02,0.18,0.03,0.04,-0.00
3.476,0.09,0.02,0.18,0.03,0.04,-0.00
3.477,0.09,0.02,0.18,0.02,0.04,-0.01
3.477,0.08,0.01,0.16,0.02,0.04,-0.01
3.478,0.08,0.01,0.16,0.03,0.05,-0.01
3.481,0.08,0.01,0.16,0.03,0.05,-0.00
3.481,0.07,0.01,0.15,0.03,0.05,-0.00
3.487,0.07,0.01,0.15,0.03,0.05,-0.00
3.488,0.07,0.01,0.15,0.03,0.05,-0.00
3.488,0.06,0.02,0.14,0.03,0.05,-0.00
3.488,0.06,0.02,0.14,0.03,0.05,-0.00
3.489,0.06,0.02,0.14,0.03,0.05,-0.00
3.489,0.06,0.00,0.12,0.03,0.05,-0.00
3.49,0.06,0.00,0.12,0.03,0.05,-0.01
3.493,0.06,0.00,0.12,0.03,0.05,-0.00
3.493,0.03,0.00,0.10,0.03,0.05,-0.00
3.494,0.03,0.00,0.10,0.03,0.05,-0.00
3.497,0.03,0.00,0.10,0.03,0.05,-0.00
3.497,0.03,-0.01,0.07,0.03,0.05,-0.00
3.498,0.03,-0.01,0.07,0.03,0.05,-0.00
3.501,0.03,-0.01,0.07,0.03,0.05,-0.00
3.501,0.02,-0.01,0.03,0.03,0.05,-0.00
3.502,0.02,-0.01,0.03,0.03,0.05,0.00
3.505,0.02,-0.01,0.03,0.03,0.04,-0.00
3.506,0.02,-0.00,0.04,0.03,0.04,-0.00
3.506,0.02,-0.00,0.04,0.03,0.05,-0.00
3.509,0.02,-0.00,0.04,0.03,0.04,-0.00
3.509,0.01,-0.01,0.00,0.03,0.04,-0.00
3.51,0.01,-0.01,0.00,0.03,0.04,-0.00
3.513,0.01,-0.01,0.00,0.03,0.04,-0.00
3.513,0.02,0.01,-0.04,0.03,0.04,-0.00
3.514,0.02,0.01,-0.04,0.03,0.04,-0.00
3.517,0.02,0.01,-0.04,0.03,0.04,-0.00
3.517,0.00,0.00,-0.06,0.03,0.04,-0.00
3.518,0.00,0.00,-0.06,0.03,0.03,-0.00
3.521,0.00,0.00,-0.06,0.02,0.03,-0.00
3.521,0.00,0.01,-0.08,0.02,0.03,-0.00
3.522,0.00,0.01,-0.08,0.02,0.03,-0.00
3.525,0.00,0.01,-0.08,0.02,0.03,-0.00
3.525,0.00,0.01,-0.10,0.02,0.03,-0.00
3.526,0.00,0.01,-0.10,0.02,0.03,-0.01
3.528,0.00,0.01,-0.10,0.02,0.02,-0.00
3.529,-0.02,0.03,-0.12,0.02,0.02,-0.00
3.53,-0.02,0.03,-0.12,0.02,0.02,-0.01
3.533,-0.02,0.03,-0.12,0.02,0.02,-0.00
3.533,-0.02,0.04,-0.13,0.02,0.02,-0.00
3.534,-0.02,0.04,-0.13,0.02,0.02,-0.01
3.537,-0.02,0.04,-0.13,0.02,0.02,-0.01
3.537,-0.01,0.07,-0.15,0.02,0.02,-0.01
3.538,-0.01,0.07,-0.15,0.02,0.02,-0.01
3.541,-0.01,0.07,-0.15,0.01,0.01,-0.01
3.541,-0.02,0.07,-0.17,0.01,0.01,-0.01
3.542,-0.02,0.07,-0.17,0.02,0.02,-0.01
3.544,-0.02,0.07,-0.17,0.01,0.01,-0.01
3.545,-0.02,0.06,-0.17,0.01,0.01,-0.01
3.548,-0.02,0.06,-0.17,0.01,0.01,-0.01
3.548,-0.02,0.06,-0.17,0.01,0.01,-0.01
3.549,-0.02,0.05,-0.18,0.01,0.01,-0.01
3.55,-0.02,0.05,-0.18,0.01,0.01,-0.01
3.553,-0.02,0.05,-0.18,0.01,0.01,-0.01
3.553,-0.01,0.06,-0.18,0.01,0.01,-0.01
3.554,-0.01,0.06,-0.18,0.00,0.01,-0.01
3.557,-0.01,0.06,-0.18,0.00,0.01,-0.01
3.557,-0.02,0.04,-0.17,0.00,0.01,-0.01
3.558,-0.02,0.04,-0.17,0.00,0.01,-0.01
3.56,-0.02,0.04,-0.17,-0.00,0.01,-0.01
3.561,-0.00,0.05,-0.17,-0.00,0.01,-0.01
3.562,-0.00,0.05,-0.17,-0.00,0.01,-0.01
3.565,-0.00,0.05,-0.17,-0.01,0.01,-0.01
3.565,-0.01,0.04,-0.15,-0.01,0.01,-0.01
3.574,-0.01,0.04,-0.15,-0.01,0.00,-0.01
3.574,-0.01,0.04,-0.15,-0.01,-0.00,-0.01
3.575,-0.03,0.02,-0.13,-0.01,-0.00,-0.01
3.575,-0.03,0.02,-0.13,-0.01,-0.00,-0.01
3.575,-0.03,0.02,-0.13,-0.01,-0.01,-0.01
3.576,-0.03,0.02,-0.10,-0.01,-0.01,-0.01
3.576,-0.03,0.02,-0.10,-0.01,-0.01,-0.01
3.577,-0.03,0.02,-0.10,-0.02,-0.01,-0.01
3.577,-0.03,0.02,-0.08,-0.02,-0.01,-0.01
3.578,-0.03,0.02,-0.08,-0.02,-0.01,-0.00
3.58,-0.03,0.02,-0.08,-0.01,-0.01,-0.00
3.581,-0.05,0.03,-0.06,-0.01,-0.01,-0.00
3.589,-0.05,0.03,-0.06,-0.02,-0.02,-0.01
3.59,-0.05,0.03,-0.06,-0.02,-0.02,-0.00
3.59,-0.04,-0.00,-0.04,-0.02,-0.02,-0.00
3.59,-0.04,-0.00,-0.04,-0.02,-0.02,-0.00
3.591,-0.04,-0.00,-0.04,-0.02,-0.02,-0.00
3.591,-0.06,0.00,-0.00,-0.02,-0.02,-0.00
3.591,-0.06,0.00,-0.00,-0.02,-0.03,-0.00
3.593,-0.06,0.00,-0.00,-0.02,-0.03,-0.00
3.593,-0.04,-0.03,0.02,-0.02,-0.03,-0.00
3.594,-0.04,-0.03,0.02,-0.02,-0.03,-0.00
3.596,-0.04,-0.03,0.02,-0.02,-0.02,-0.00
3.597,-0.04,-0.05,0.04,-0.02,-0.02,-0.00
3.598,-0.04,-0.05,0.04,-0.02,-0.02,-0.00
3.6,-0.04,-0.05,0.04,-0.02,-0.03,0.00
3.601,-0.03,-0.05,0.06,-0.02,-0.03,0.00
3.602,-0.03,-0.05,0.06,-0.02,-0.02,0.00
3.605,-0.03,-0.05,0.06,-0.02,-0.02,0.00
3.605,-0.02,-0.07,0.08,-0.02,-0.02,0.00
3.606,-0.02,-0.07,0.08,-0.02,-0.02,0.00
3.608,-0.02,-0.07,0.08,-0.02,-0.02,0.00
3.609,-0.01,-0.07,0.08,-0.02,-0.02,0.00
3.61,-0.01,-0.07,0.08,-0.02,-0.02,0.00
3.612,-0.01,-0.07,0.08,-0.02,-0.02,0.00
3.613,-0.00,-0.09,0.10,-0.02,-0.02,0.00
3.614,-0.00,-0.09,0.10,-0.01,-0.02,0.01
3.616,-0.00,-0.09,0.10,-0.01,-0.01,0.01
3.617,0.01,-0.08,0.10,-0.01,-0.01,0.01
3.618,0.01,-0.08,0.10,-0.01,-0.01,0.00
3.62,0.03,-0.08,0.11,-0.01,-0.01,0.00
3.621,0.03,-0.08,0.11,-0.01,-0.01,0.01
3.622,0.03,-0.08,0.11,-0.01,-0.01,0.01
3.625,0.03,-0.08,0.11,-0.01,-0.00,0.01
3.625,0.05,-0.07,0.10,-0.01,-0.00,0.01
3.626,0.05,-0.07,0.10,-0.01,-0.00,0.01
3.628,0.05,-0.07,0.10,-0.01,0.00,0.01
3.628,0.07,-0.07,0.12,-0.01,0.00,0.01
3.63,0.07,-0.07,0.12,-0.01,-0.00,0.00
3.633,0.07,-0.07,0.12,-0.00,0.00,0.01
3.633,0.09,-0.06,0.12,-0.00,0.00,0.01
3.634,0.09,-0.06,0.12,0.00,0.00,0.01
3.636,0.09,-0.06,0.12,0.00,0.01,0.01
3.637,0.09,-0.04,0.11,0.00,0.01,0.01
3.638,0.09,-0.04,0.11,0.01,0.01,0.01
3.64,0.09,-0.04,0.11,0.01,0.01,0.01
3.641,0.10,-0.04,0.13,0.01,0.01,0.01
3.642,0.10,-0.04,0.13,0.01,0.01,0.00
3.644,0.10,-0.04,0.13,0.01,0.01,0.01
3.644,0.10,-0.02,0.13,0.01,0.01,0.01
3.646,0.10,-0.02,0.13,0.01,0.01,0.00
3.648,0.10,-0.02,0.13,0.01,0.01,0.00
3.648,0.09,-0.01,0.13,0.01,0.01,0.00
3.65,0.09,-0.01,0.13,0.01,0.02,0.00
3.652,0.09,-0.01,0.13,0.01,0.02,0.00
3.652,0.09,-0.01,0.11,0.01,0.02,0.00
3.654,0.09,-0.01,0.11,0.01,0.02,0.00
3.656,0.09,-0.01,0.11,0.01,0.02,0.00
3.657,0.09,-0.01,0.09,0.01,0.02,0.00
3.658,0.09,-0.01,0.09,0.02,0.02,0.00
3.66,0.09,-0.01,0.09,0.02,0.02,0.00
3.66,0.09,0.01,0.09,0.02,0.02,0.00
3.662,0.09,0.01,0.09,0.01,0.02,0.00
3.664,0.09,0.01,0.09,0.02,0.02,0.00
3.664,0.07,0.01,0.07,0.02,0.02,0.00
3.672,0.07,0.01,0.07,0.02,0.02,0.00
3.673,0.07,0.01,0.07,0.02,0.02,-0.00
3.674,0.07,0.01,0.07,0.02,0.02,-0.00
3.674,0.07,0.01,0.07,0.02,0.03,0.00
3.674,0.07,0.01,0.07,0.02,0.02,0.00
3.674,0.07,0.02,0.05,0.02,0.02,0.00
3.675,0.07,0.02,0.05,0.02,0.03,0.00
3.676,0.07,0.02,0.05,0.02,0.03,-0.00
3.676,0.07,0.02,0.04,0.02,0.03,-0.00
3.678,0.07,0.02,0.04,0.02,0.03,0.00
3.681,0.07,0.02,0.04,0.02,0.03,0.00
3.681,0.06,0.02,0.03,0.02,0.03,0.00
3.682,0.06,0.02,0.03,0.02,0.03,-0.00
3.686,0.06,0.02,0.03,0.02,0.03,0.00
3.687,0.05,0.02,0.01,0.02,0.03,0.00
3.687,0.05,0.02,0.01,0.02,0.02,0.00
3.688,0.05,0.02,0.01,0.01,0.03,0.00
3.688,0.03,0.01,0.00,0.01,0.03,0.00
3.69,0.03,0.01,0.00,0.02,0.03,-0.00
3.692,0.03,0.01,0.00,0.02,0.03,0.00
3.693,0.04,0.00,-0.00,0.02,0.03,0.00
3.693,0.04,0.00,-0.00,0.01,0.03,0.00
3.696,0.04,0.00,-0.00,0.01,0.03,0.00
3.696,0.04,-0.01,-0.00,0.01,0.03,0.00
3.697,0.04,-0.01,-0.00,0.01,0.03,-0.00
3.7,0.04,-0.01,-0.00,0.01,0.03,0.00
3.7,0.02,0.00,0.00,0.01,0.03,0.00
3.702,0.02,0.00,0.00,0.01,0.03,-0.00
3.704,0.02,0.00,0.00,0.01,0.03,0.00
3.705,0.01,-0.01,-0.02,0.01,0.03,0.00
3.706,0.01,-0.01,-0.02,0.01,0.02,0.00
3.708,0.01,-0.01,-0.02,0.01,0.03,0.00
3.708,-0.01,-0.02,-0.02,0.01,0.03,0.00
3.71,-0.01,-0.02,-0.02,0.01,0.03,0.00
3.712,-0.01,-0.02,-0.02,0.01,0.02,0.00
3.712,-0.01,-0.02,-0.02,0.01,0.02,0.00
3.714,-0.01,-0.02,-0.02,0.01,0.02,0.00
3.716,-0.01,-0.02,-0.02,0.01,0.02,0.00
3.717,-0.01,-0.01,-0.02,0.01,0.02,0.00
3.717,-0.01,-0.01,-0.02,0.01,0.02,-0.00
3.72,-0.01,-0.01,-0.02,0.01,0.02,0.00
3.72,-0.00,-0.02,-0.03,0.01,0.02,0.00
3.722,-0.00,-0.02,-0.03,0.01,0.02,0.00
3.724,-0.00,-0.02,-0.03,0.01,0.02,0.00
3.724,-0.01,-0.01,-0.03,0.01,0.02,0.00
3.725,-0.01,-0.01,-0.03,0.01,0.02,-0.00
3.728,-0.01,-0.01,-0.03,0.01,0.02,0.00
3.728,-0.00,-0.01,-0.04,0.01,0.02,0.00
3.729,-0.00,-0.01,-0.04,0.01,0.01,0.00
3.732,-0.01,-0.00,-0.04,0.01,0.01,0.00
3.732,-0.01,-0.00,-0.04,0.01,0.01,0.00
3.733,-0.01,-0.00,-0.04,0.01,0.01,0.00
3.736,-0.01,-0.00,-0.04,0.01,0.01,0.00
3.736,-0.00,0.00,-0.06,0.01,0.01,0.00
3.738,-0.00,0.00,-0.06,0.01,0.02,0.00
3.74,-0.00,0.00,-0.06,0.01,0.01,0.00
3.74,-0.01,0.02,-0.04,0.01,0.01,0.00
3.741,-0.01,0.02,-0.04,0.01,0.01,0.00
3.744,-0.01,0.02,-0.04,0.01,0.01,-0.00
3.744,0.00,0.02,-0.05,0.01,0.01,-0.00
3.745,0.00,0.02,-0.05,0.01,0.01,0.00
3.748,0.00,0.02,-0.05,0.00,0.02,0.00
3.748,0.00,0.03,-0.06,0.00,0.02,0.00
3.749,0.00,0.03,-0.06,0.00,0.01,-0.00
3.752,0.00,0.03,-0.06,0.01,0.01,0.00
3.752,-0.00,0.04,-0.06,0.01,0.01,0.00
3.754,-0.00,0.04,-0.06,0.00,0.01,-0.00
3.756,-0.00,0.04,-0.06,0.01,0.01,0.00
3.757,-0.00,0.07,-0.06,0.01,0.01,0.00
3.757,-0.00,0.07,-0.06,0.00,0.01,0.00
3.76,-0.00,0.07,-0.06,0.00,0.01,0.00
3.76,-0.01,0.06,-0.04,0.00,0.01,0.00
3.761,-0.01,0.06,-0.04,0.00,0.01,0.00
3.764,-0.01,0.06,-0.04,0.00,0.01,0.00
3.764,0.00,0.05,-0.04,0.00,0.01,0.00
3.772,0.00,0.05,-0.04,0.00,0.01,0.00
3.773,0.00,0.05,-0.04,-0.00,0.01,0.00
3.773,-0.01,0.05,-0.04,-0.00,0.01,0.00
3.774,-0.01,0.05,-0.04,-0.00,0.01,0.00
3.774,-0.01,0.05,-0.04,0.00,0.01,0.00
3.774,0.00,0.03,-0.03,0.00,0.01,0.00
3.775,0.00,0.03,-0.03,-0.00,0.01,0.00
3.776,0.00,0.03,-0.03,-0.01,0.01,0.00
3.776,0.00,0.01,-0.04,-0.01,0.01,0.00
3.777,0.00,0.01,-0.04,-0.01,0.01,0.00
3.78,0.00,0.01,-0.04,-0.01,0.01,0.00
3.78,0.01,0.01,-0.02,-0.01,0.01,0.00
3.781,0.01,0.01,-0.02,-0.01,0.01,0.00
3.785,0.01,0.01,-0.02,-0.01,0.01,0.00
3.786,0.02,-0.02,-0.01,-0.01,0.01,0.00
3.786,0.02,-0.02,-0.01,-0.01,0.01,0.00
3.788,0.02,-0.02,-0.01,-0.01,0.01,0.00
3.788,0.03,-0.02,-0.02,-0.01,0.01,0.00
3.789,0.03,-0.02,-0.02,-0.01,0.01,0.00
3.792,0.03,-0.02,-0.02,-0.01,0.00,0.01
3.793,0.02,-0.04,0.01,-0.01,0.00,0.01
3.794,0.02,-0.04,0.01,-0.01,0.00,0.00
3.796,0.02,-0.04,0.01,-0.01,0.00,0.00
3.796,0.03,-0.05,0.02,-0.01,0.00,0.00
3.797,0.03,-0.05,0.02,-0.01,0.01,0.00
3.8,0.03,-0.05,0.02,-0.01,0.01,0.00
3.8,0.04,-0.05,0.03,-0.01,0.01,0.00
3.801,0.04,-0.05,0.03,-0.01,0.01,0.00
3.804,0.04,-0.05,0.03,-0.01,0.01,0.00
3.804,0.04,-0.04,0.04,-0.01,0.01,0.00
3.805,0.04,-0.04,0.04,-0.01,0.01,0.00
3.808,0.04,-0.04,0.04,-0.01,0.01,0.00
3.808,0.03,-0.03,0.06,-0.01,0.01,0.00
3.81,0.03,-0.03,0.06,-0.01,0.01,0.00
3.812,0.03,-0.03,0.06,-0.01,0.01,0.00
3.816,0.03,-0.02,0.07,-0.01,0.01,0.00
3.816,0.03,-0.02,0.07,-0.01,0.01,0.00
3.817,0.03,-0.02,0.07,-0.00,0.01,0.00
3.817,0.03,-0.01,0.08,-0.00,0.01,0.00
3.817,0.03,-0.01,0.08,-0.00,0.01,-0.00
3.82,0.03,-0.01,0.08,-0.00,0.01,0.00
3.821,0.00,0.01,0.07,-0.00,0.01,0.00
3.822,0.00,0.01,0.07,-0.00,0.01,-0.00
3.824,0.00,0.01,0.07,-0.00,0.02,-0.00
3.825,0.02,-0.01,0.08,-0.00,0.02,-0.00
3.825,0.02,-0.01,0.08,0.00,0.02,-0.00
3.828,0.02,-0.01,0.08,0.00,0.02,-0.00
3.828,0.00,0.01,0.07,0.00,0.02,-0.00
3.829,0.00,0.01,0.07,0.00,0.02,-0.00
3.832,0.00,0.01,0.07,0.01,0.02,0.00
3.832,0.00,0.01,0.06,0.01,0.02,0.00
3.833,0.00,0.01,0.06,0.01,0.02,-0.00
3.835,0.00,0.01,0.06,0.01,0.02,-0.00
3.836,-0.00,-0.01,0.04,0.01,0.02,-0.00
3.837,-0.00,-0.01,0.04,0.01,0.03,-0.00
3.84,-0.00,-0.01,0.04,0.01,0.03,-0.00
3.84,-0.00,-0.00,0.03,0.01,0.03,-0.00
3.841,-0.00,-0.00,0.03,0.01,0.03,-0.00
3.843,-0.00,-0.00,0.03,0.01,0.02,-0.00
3.844,-0.02,0.00,0.03,0.01,0.02,-0.00
3.845,-0.02,0.00,0.03,0.00,0.02,-0.00
3.847,-0.02,0.00,0.03,0.01,0.02,0.00
3.848,-0.02,0.01,0.01,0.01,0.02,0.00
3.85,-0.02,0.01,0.01,0.01,0.02,0.00
3.852,-0.02,0.01,0.01,0.01,0.02,-0.00
3.852,-0.02,0.00,-0.02,0.01,0.02,-0.00
3.853,-0.02,0.00,-0.02,0.01,0.02,0.00
3.856,-0.02,0.00,-0.02,0.01,0.02,0.00
3.857,-0.03,0.01,-0.03,0.01,0.02,0.00
3.857,-0.03,0.01,-0.03,0.01,0.02,0.00
3.859,-0.03,0.01,-0.03,0.01,0.02,0.00
3.86,-0.04,-0.02,-0.04,0.01,0.02,0.00
3.861,-0.04,-0.02,-0.04,0.00,0.02,0.00
3.863,-0.04,-0.02,-0.04,0.01,0.02,0.00
3.864,-0.04,-0.01,-0.06,0.01,0.02,0.00
3.865,-0.04,-0.01,-0.06,0.00,0.02,0.00
3.872,-0.04,-0.01,-0.06,0.00,0.01,0.00
3.873,-0.04,-0.01,-0.07,0.00,0.01,0.00
3.873,-0.04,-0.01,-0.07,0.00,0.01,0.00
3.874,-0.04,-0.01,-0.07,0.00,0.01,0.00
3.874,-0.06,-0.00,-0.08,0.00,0.01,0.00
3.874,-0.06,-0.00,-0.08,0.00,0.01,0.00
3.875,-0.06,-0.00,-0.08,0.00,0.01,0.00
3.876,-0.05,-0.00,-0.08,0.00,0.01,0.00
3.877,-0.05,-0.00,-0.08,-0.00,0.01,0.00
3.879,-0.05,-0.00,-0.08,-0.00,0.00,0.00
3.88,-0.05,-0.01,-0.09,-0.00,0.00,0.00
3.881,-0.05,-0.01,-0.09,-0.00,0.00,0.00
3.885,-0.05,-0.01,-0.09,-0.00,0.00,0.01
3.886,-0.04,-0.02,-0.11,-0.00,0.00,0.01
3.886,-0.04,-0.02,-0.11,-0.01,0.00,0.01
3.887,-0.04,-0.02,-0.11,-0.00,-0.00,0.01
3.888,-0.04,-0.03,-0.09,-0.00,-0.00,0.01
3.889,-0.04,-0.03,-0.09,-0.00,0.00,0.01
3.891,-0.04,-0.03,-0.09,-0.00,0.00,0.01
3.892,-0.03,-0.02,-0.08,-0.00,0.00,0.01
3.893,-0.03,-0.02,-0.08,-0.01,0.00,0.01
3.895,-0.03,-0.02,-0.08,-0.01,0.00,0.01
3.895,-0.02,-0.03,-0.08,-0.01,0.00,0.01
3.897,-0.02,-0.03,-0.08,-0.00,0.00,0.01
3.899,-0.02,-0.03,-0.08,-0.01,0.00,0.01
3.9,-0.01,-0.01,-0.07,-0.01,0.00,0.01
3.901,-0.01,-0.01,-0.07,-0.01,-0.00,0.01
3.903,-0.01,-0.01,-0.07,-0.01,-0.00,0.01
3.904,0.02,-0.01,-0.04,-0.01,-0.00,0.01
3.905,0.02,-0.01,-0.04,-0.01,-0.00,0.01
3.908,0.02,-0.01,-0.04,-0.01,-0.00,0.01
3.908,0.01,-0.01,-0.05,-0.01,-0.00,0.01
3.909,0.01,-0.01,-0.05,-0.01,-0.00,0.01
3.911,0.01,-0.01,-0.05,-0.01,-0.00,0.01
3.912,0.02,0.00,-0.03,-0.01,-0.00,0.01
3.913,0.02,0.00,-0.03,-0.01,-0.00,0.01
3.915,0.02,0.00,-0.03,-0.01,-0.00,0.01
3.915,0.02,0.00,-0.01,-0.01,-0.00,0.01
3.917,0.02,0.00,-0.01,-0.01,-0.00,0.00
3.919,0.02,0.00,-0.01,-0.01,-0.00,0.01
3.92,0.01,-0.01,0.01,-0.01,-0.00,0.01
3.921,0.01,-0.01,0.01,-0.01,-0.00,0.01
3.923,0.01,-0.01,0.01,-0.01,-0.01,0.00
3.924,0.01,-0.00,0.01,-0.01,-0.01,0.00
3.925,0.01,-0.00,0.01,-0.00,-0.01,0.00
3.927,0.01,-0.00,0.01,-0.00,-0.01,0.00
3.927,0.00,0.01,0.03,-0.00,-0.01,0.00
3.929,0.00,0.01,0.03,-0.00,-0.01,0.00
3.931,0.00,0.01,0.03,-0.00,-0.01,0.01
3.932,-0.00,0.00,0.04,-0.00,-0.01,0.01
3.933,-0.00,0.00,0.04,-0.00,-0.01,0.00
3.935,-0.00,0.00,0.04,-0.00,-0.01,0.00
3.936,-0.02,-0.02,0.06,-0.00,-0.01,0.00
3.937,-0.02,-0.02,0.06,-0.00,-0.01,0.00
3.939,-0.02,-0.02,0.06,-0.00,-0.00,0.00
3.94,-0.01,-0.02,0.06,-0.00,-0.00,0.00
3.941,-0.01,-0.02,0.06,-0.00,-0.00,0.00
3.943,-0.01,-0.02,0.06,-0.00,-0.00,0.01
3.943,-0.03,-0.03,0.07,-0.00,-0.00,0.01
3.946,-0.03,-0.03,0.07,-0.00,0.00,0.01
3.947,-0.03,-0.03,0.07,0.00,-0.00,0.01
3.947,-0.02,-0.05,0.07,0.00,-0.00,0.01
3.95,-0.02,-0.05,0.07,0.00,0.00,0.00
3.951,-0.02,-0.05,0.07,0.00,0.00,0.01
3.952,-0.02,-0.04,0.07,0.00,0.00,0.01
3.953,-0.02,-0.04,0.07,0.00,0.00,0.01
3.955,-0.02,-0.04,0.07,0.00,0.00,0.01
3.956,-0.02,-0.06,0.07,0.00,0.00,0.01
3.957,-0.02,-0.06,0.07,0.00,0.00,0.01
3.959,-0.02,-0.06,0.07,0.00,0.01,0.01
3.96,-0.02,-0.07,0.08,0.00,0.01,0.01
3.961,-0.02,-0.07,0.08,0.01,0.01,0.01
3.963,-0.02,-0.07,0.08,0.01,0.01,0.01
3.963,-0.00,-0.05,0.06,0.01,0.01,0.01
3.965,-0.00,-0.05,0.06,0.01,0.01,0.01
3.971,-0.00,-0.05,0.06,0.01,0.01,0.01
3.972,0.00,-0.05,0.06,0.01,0.01,0.01
3.972,0.00,-0.05,0.06,0.01,0.02,0.01
3.972,0.00,-0.05,0.06,0.01,0.02,0.01
3.973,0.02,-0.03,0.04,0.01,0.02,0.01
3.973,0.02,-0.03,0.04,0.01,0.02,0.01
3.975,0.02,-0.03,0.04,0.01,0.02,0.01
3.975,0.02,-0.03,0.04,0.01,0.02,0.01
3.977,0.02,-0.03,0.04,0.01,0.02,0.01
3.979,0.02,-0.03,0.04,0.01,0.02,0.01
3.979,0.04,-0.00,0.03,0.01,0.02,0.01
3.981,0.04,-0.00,0.03,0.01,0.02,0.01
3.983,0.04,-0.00,0.03,0.01,0.02,0.01
3.984,0.04,0.01,0.00,0.01,0.02,0.01
3.984,0.04,0.01,0.00,0.01,0.02,0.01
3.987,0.04,0.01,0.00,0.01,0.02,0.01
3.987,0.05,0.02,-0.00,0.01,0.02,0.01
3.988,0.05,0.02,-0.00,0.02,0.02,0.01
3.991,0.05,0.02,-0.00,0.01,0.03,0.01
3.991,0.05,0.04,-0.02,0.01,0.03,0.01
3.992,0.05,0.04,-0.02,0.01,0.02,0.01
3.995,0.05,0.04,-0.02,0.01,0.03,0.01
3.995,0.04,0.04,-0.02,0.01,0.03,0.01
3.996,0.04,0.04,-0.02,0.01,0.02,0.01
3.999,0.04,0.04,-0.02,0.01,0.03,0.01
4.0,0.03,0.03,-0.03,0.01,0.03,0.01
4.0,0.03,0.03,-0.03,0.01,0.02,0.01
4.003,0.03,0.03,-0.03,0.01,0.02,0.00
4.003,0.03,0.04,-0.05,0.01,0.02,0.00
4.005,0.03,0.04,-0.05,0.01,0.02,0.00
4.007,0.03,0.04,-0.05,0.01,0.02,0.00
4.007,0.02,0.05,-0.04,0.01,0.02,0.00
4.009,0.02,0.05,-0.04,0.01,0.02,0.00
4.011,0.02,0.05,-0.04,0.01,0.02,0.00
4.011,0.02,0.02,-0.05,0.01,0.02,0.00
4.012,0.02,0.02,-0.05,0.01,0.01,0.00
4.015,0.02,0.02,-0.05,0.01,0.01,0.00
4.015,-0.00,0.02,-0.06,0.01,0.01,0.00
4.017,-0.00,0.02,-0.06,0.01,0.01,0.00
4.019,-0.00,0.02,-0.06,0.01,0.01,0.00
4.019,0.01,0.03,-0.05,0.01,0.01,0.00
4.021,0.01,0.03,-0.05,0.01,0.01,0.00
4.023,0.01,0.03,-0.05,0.01,0.00,0.00
4.024,-0.00,0.01,-0.07,0.01,0.00,0.00
4.025,-0.00,0.01,-0.07,0.01,-0.00,0.00
4.027,-0.00,0.01,-0.07,0.01,-0.00,0.00
4.028,-0.03,-0.01,-0.05,0.01,-0.00,0.00
4.028,-0.03,-0.01,-0.05,0.00,-0.01,0.00
4.031,-0.03,-0.01,-0.05,0.01,-0.01,0.00
4.031,-0.04,-0.01,-0.04,0.01,-0.01,0.00
4.033,-0.04,-0.01,-0.04,0.00,-0.01,0.00
4.035,-0.04,-0.01,-0.04,0.00,-0.01,0.00
4.035,-0.05,-0.01,-0.02,0.00,-0.01,0.00
4.036,-0.05,-0.01,-0.02,0.00,-0.01,0.00
4.039,-0.05,-0.01,-0.02,0.00,-0.01,0.00
4.039,-0.05,-0.03,-0.02,0.00,-0.01,0.00
4.04,-0.05,-0.03,-0.02,0.00,-0.02,0.00
4.043,-0.05,-0.03,-0.02,-0.00,-0.02,0.00
4.043,-0.05,-0.02,-0.01,-0.00,-0.02,0.00
4.044,-0.05,-0.02,-0.01,0.00,-0.02,0.00
4.047,-0.05,-0.02,-0.01,0.00,-0.02,0.00
4.047,-0.06,-0.01,-0.00,0.00,-0.02,0.00
4.048,-0.06,-0.01,-0.00,0.00,-0.02,0.00
4.051,-0.06,-0.01,-0.00,0.00,-0.02,0.00
4.051,-0.06,-0.02,0.01,0.00,-0.02,0.00
4.053,-0.06,-0.02,0.01,0.00,-0.02,0.00
4.055,-0.06,-0.02,0.01,0.00,-0.02,0.00
4.055,-0.07,-0.01,0.03,0.00,-0.02,0.00
4.057,-0.07,-0.01,0.03,0.00,-0.02,0.01
4.059,-0.07,-0.01,0.03,0.00,-0.02,0.00
4.059,-0.07,-0.00,0.03,0.00,-0.02,0.00
4.06,-0.07,-0.00,0.03,0.00,-0.02,0.00
4.063,-0.07,-0.00,0.03,0.00,-0.02,0.00
4.063,-0.06,0.01,0.03,0.00,-0.02,0.00
4.064,-0.06,0.01,0.03,0.00,-0.02,0.01
4.073,-0.06,0.01,0.03,0.01,-0.02,0.01
4.074,-0.05,-0.01,0.03,0.01,-0.02,0.01
4.074,-0.05,-0.01,0.03,0.00,-0.01,0.01
4.075,-0.05,-0.01,0.03,0.00,-0.01,0.01
4.075,-0.05,-0.00,0.03,0.00,-0.01,0.01
4.075,-0.05,-0.00,0.03,0.00,-0.01,0.01
4.076,-0.05,-0.00,0.03,0.01,-0.01,0.00
4.076,-0.05,0.00,0.03,0.01,-0.01,0.00
4.076,-0.05,0.00,0.03,0.00,-0.01,0.01
4.079,-0.05,0.00,0.03,0.00,-0.01,0.00
4.08,-0.03,-0.00,0.02,0.00,-0.01,0.00
4.08,-0.03,-0.00,0.02,0.01,-0.00,0.01
4.085,-0.03,-0.00,0.02,0.01,-0.00,0.01
