
time,ax,ay,az,wx,wy,wz
0.051491,0.0000,0.0000,0.0000,0.0000,0.0000,0.0000
0.052301,-0.7628,-0.2134,-1.4801,0.0000,0.0000,0.0000
0.053043,-0.7628,-0.2134,-1.4801,0.0000,0.0000,0.0000
0.053696,-0.7628,-0.2134,-1.4801,0.6065,0.4320,0.0568
0.054295,-0.6978,-0.2390,-1.6529,0.6065,0.4320,0.0568
0.054881,-0.6978,-0.2390,-1.6529,0.6065,0.4320,0.0568
0.055289,-0.6978,-0.2390,-1.6529,0.6053,0.4333,0.0591
0.055848,-0.6139,-0.2596,-1.7888,0.6053,0.4333,0.0591
0.056563,-0.6139,-0.2596,-1.7888,0.6053,0.4333,0.0591
0.057007,-0.6139,-0.2596,-1.7888,0.6003,0.4356,0.0616
0.057616,-0.5322,-0.2990,-1.9357,0.6003,0.4356,0.0616
0.058259,-0.5322,-0.2990,-1.9357,0.6003,0.4356,0.0616
0.058657,-0.5322,-0.2990,-1.9357,0.5918,0.4368,0.0616
0.059201,-0.4986,-0.2983,-2.0636,0.5918,0.4368,0.0616
0.059883,-0.4986,-0.2983,-2.0636,0.5918,0.4368,0.0616
0.060298,-0.4986,-0.2983,-2.0636,0.5808,0.4430,0.0616
0.060817,-0.4719,-0.3062,-2.1707,0.5808,0.4430,0.0616
0.061374,-0.4719,-0.3062,-2.1707,0.5808,0.4430,0.0616
0.061890,-0.4719,-0.3062,-2.1707,0.5661,0.4466,0.0604
0.062425,-0.4821,-0.3049,-2.2646,0.5661,0.4466,0.0604
0.063051,-0.4821,-0.3049,-2.2646,0.5661,0.4466,0.0604
0.063500,-0.4821,-0.3049,-2.2646,0.5490,0.4516,0.0591
0.063960,-0.4145,-0.3382,-2.3618,0.5490,0.4516,0.0591
0.064576,-0.4145,-0.3382,-2.3618,0.5490,0.4516,0.0591
0.064986,-0.4145,-0.3382,-2.3618,0.5295,0.4516,0.0568
0.065535,-0.4026,-0.3381,-2.4021,0.5295,0.4516,0.0568
0.066166,-0.4026,-0.3381,-2.4021,0.5295,0.4516,0.0568
0.066577,-0.4026,-0.3381,-2.4021,0.5100,0.4516,0.0556
0.067061,-0.3500,-0.3595,-2.4705,0.5100,0.4516,0.0556
0.067674,-0.3500,-0.3595,-2.4705,0.5100,0.4516,0.0556
0.068063,-0.3500,-0.3595,-2.4705,0.4892,0.4491,0.0543
0.068608,-0.2894,-0.4084,-2.5010,0.4892,0.4491,0.0543
0.069159,-0.2894,-0.4084,-2.5010,0.4892,0.4491,0.0543
0.069630,-0.2894,-0.4084,-2.5010,0.4672,0.4455,0.0531
0.070218,-0.2248,-0.4098,-2.5287,0.4672,0.4455,0.0531
0.070817,-0.2248,-0.4098,-2.5287,0.4672,0.4455,0.0531
0.071236,-0.2248,-0.4098,-2.5287,0.4440,0.4405,0.0506
0.071755,-0.1724,-0.4627,-2.5526,0.4440,0.4405,0.0506
0.072376,-0.1724,-0.4627,-2.5526,0.4440,0.4405,0.0506
0.072786,-0.1724,-0.4627,-2.5526,0.4232,0.4381,0.0470
0.073379,-0.0912,-0.4550,-2.5737,0.4232,0.4381,0.0470
0.074021,-0.0912,-0.4550,-2.5737,0.4232,0.4381,0.0470
0.074442,-0.0912,-0.4550,-2.5737,0.4037,0.4381,0.0396
0.074907,-0.0369,-0.4421,-2.5908,0.4037,0.4381,0.0396
0.075459,-0.0369,-0.4421,-2.5908,0.4037,0.4381,0.0396
0.075854,-0.0369,-0.4421,-2.5908,0.3865,0.4418,0.0323
0.076324,0.0394,-0.4386,-2.5710,0.3865,0.4418,0.0323
0.076878,0.0394,-0.4386,-2.5710,0.3865,0.4418,0.0323
0.077270,0.0394,-0.4386,-2.5710,0.3695,0.4478,0.0250
0.077949,0.0849,-0.4667,-2.5934,0.3695,0.4478,0.0250
0.078650,0.0849,-0.4667,-2.5934,0.3695,0.4478,0.0250
0.079071,0.0849,-0.4667,-2.5934,0.3535,0.4577,0.0188
0.079602,0.1667,-0.4666,-2.5738,0.3535,0.4577,0.0188
0.080155,0.1667,-0.4666,-2.5738,0.3535,0.4577,0.0188
0.080575,0.1667,-0.4666,-2.5738,0.3402,0.4711,0.0115
0.081119,0.1977,-0.5100,-2.5224,0.3402,0.4711,0.0115
0.081755,0.1977,-0.5100,-2.5224,0.3402,0.4711,0.0115
0.082160,0.1977,-0.5100,-2.5224,0.3304,0.4833,0.0030
0.082624,0.2162,-0.5561,-2.4619,0.3304,0.4833,0.0030
0.082981,0.2162,-0.5561,-2.4619,0.3304,0.4833,0.0030
0.083199,0.2162,-0.5561,-2.4619,0.3255,0.4956,-0.0092
0.083460,0.2309,-0.5910,-2.4103,0.3255,0.4956,-0.0092
0.083832,0.2309,-0.5910,-2.4103,0.3255,0.4956,-0.0092
0.084049,0.2309,-0.5910,-2.4103,0.3205,0.5103,-0.0165
0.084304,0.2400,-0.6338,-2.2998,0.3205,0.5103,-0.0165
0.084642,0.2400,-0.6338,-2.2998,0.3205,0.5103,-0.0165
0.084878,0.2400,-0.6338,-2.2998,0.3182,0.5273,-0.0252
0.085113,0.2205,-0.6795,-2.2211,0.3182,0.5273,-0.0252
0.085476,0.2205,-0.6795,-2.2211,0.3182,0.5273,-0.0252
0.085707,0.2205,-0.6795,-2.2211,0.3205,0.5420,-0.0373
0.085977,0.1865,-0.7381,-2.1615,0.3205,0.5420,-0.0373
0.086294,0.1865,-0.7381,-2.1615,0.3205,0.5420,-0.0373
0.086509,0.1865,-0.7381,-2.1615,0.3242,0.5518,-0.0495
0.086811,0.1678,-0.7758,-2.1306,0.3242,0.5518,-0.0495
0.087161,0.1678,-0.7758,-2.1306,0.3242,0.5518,-0.0495
0.087429,0.1678,-0.7758,-2.1306,0.3255,0.5591,-0.0642
0.087710,0.1643,-0.7733,-2.1017,0.3255,0.5591,-0.0642
0.088071,0.1643,-0.7733,-2.1017,0.3255,0.5591,-0.0642
0.088318,0.1643,-0.7733,-2.1017,0.3304,0.5640,-0.0764
0.088587,0.1530,-0.7969,-2.1248,0.3304,0.5640,-0.0764
0.089107,0.1530,-0.7969,-2.1248,0.3304,0.5640,-0.0764
0.089334,0.1530,-0.7969,-2.1248,0.3327,0.5628,-0.0910
0.090317,0.1799,-0.7955,-2.1589,0.3327,0.5628,-0.0910
0.090826,0.1799,-0.7955,-2.1589,0.3327,0.5628,-0.0910
0.091161,0.1799,-0.7955,-2.1589,0.3340,0.5616,-0.1045
0.091583,0.1808,-0.8310,-2.2109,0.3340,0.5616,-0.1045
0.091996,0.1808,-0.8310,-2.2109,0.3340,0.5616,-0.1045
0.092309,0.1808,-0.8310,-2.2109,0.3304,0.5591,-0.1180
0.092632,0.1578,-0.8873,-2.2678,0.3304,0.5591,-0.1180
0.093065,0.1578,-0.8873,-2.2678,0.3304,0.5591,-0.1180
0.093397,0.1578,-0.8873,-2.2678,0.3267,0.5541,-0.1326
0.093854,0.1587,-0.9106,-2.3499,0.3267,0.5541,-0.1326
0.094277,0.1587,-0.9106,-2.3499,0.3267,0.5541,-0.1326
0.094597,0.1587,-0.9106,-2.3499,0.3205,0.5505,-0.1435
0.095003,0.1597,-0.9096,-2.4210,0.3205,0.5505,-0.1435
0.095451,0.1597,-0.9096,-2.4210,0.3205,0.5505,-0.1435
0.095778,0.1597,-0.9096,-2.4210,0.3120,0.5444,-0.1546
0.096185,0.1726,-0.9105,-2.4522,0.3120,0.5444,-0.1546
0.096630,0.1726,-0.9105,-2.4522,0.3120,0.5444,-0.1546
0.096964,0.1726,-0.9105,-2.4522,0.3047,0.5383,-0.1668
0.097626,0.2334,-0.8990,-2.4644,0.3047,0.5383,-0.1668
0.098114,0.2334,-0.8990,-2.4644,0.3047,0.5383,-0.1668
0.098449,0.2334,-0.8990,-2.4644,0.2925,0.5310,-0.1778
0.098889,0.3250,-0.8813,-2.4907,0.2925,0.5310,-0.1778
0.099370,0.3250,-0.8813,-2.4907,0.2925,0.5310,-0.1778
0.099708,0.3250,-0.8813,-2.4907,0.2815,0.5236,-0.1900
0.100142,0.3257,-0.8664,-2.4722,0.2815,0.5236,-0.1900
0.100602,0.3257,-0.8664,-2.4722,0.2815,0.5236,-0.1900
0.100920,0.3257,-0.8664,-2.4722,0.2729,0.5138,-0.2035
0.101305,0.3692,-0.8691,-2.4768,0.2729,0.5138,-0.2035
0.112759,0.3692,-0.8691,-2.4768,0.2729,0.5138,-0.2035
0.113092,0.3692,-0.8691,-2.4768,0.2644,0.5028,-0.2181
0.113602,0.3865,-0.8906,-2.4634,0.2644,0.5028,-0.2181
0.114022,0.3865,-0.8906,-2.4634,0.2644,0.5028,-0.2181
0.114314,0.3865,-0.8906,-2.4634,0.2570,0.4931,-0.2303
0.114691,0.3559,-0.8848,-2.4390,0.2570,0.4931,-0.2303
0.115078,0.3559,-0.8848,-2.4390,0.2570,0.4931,-0.2303
0.115352,0.3559,-0.8848,-2.4390,0.2522,0.4821,-0.2426
0.115744,0.3370,-0.8799,-2.4669,0.2522,0.4821,-0.2426
0.116157,0.3370,-0.8799,-2.4669,0.2522,0.4821,-0.2426
0.116564,0.3370,-0.8799,-2.4669,0.2497,0.4723,-0.2511
0.116978,0.2511,-0.8880,-2.4786,0.2497,0.4723,-0.2511
0.117384,0.2511,-0.8880,-2.4786,0.2497,0.4723,-0.2511
0.117732,0.2511,-0.8880,-2.4786,0.2485,0.4686,-0.2597
0.118061,0.1452,-0.8658,-2.5225,0.2485,0.4686,-0.2597
0.118471,0.1452,-0.8658,-2.5225,0.2485,0.4686,-0.2597
0.118756,0.1452,-0.8658,-2.5225,0.2472,0.4723,-0.2670
0.119091,0.0455,-0.8557,-2.5572,0.2472,0.4723,-0.2670
0.119461,0.0455,-0.8557,-2.5572,0.2472,0.4723,-0.2670
0.119732,0.0455,-0.8557,-2.5572,0.2472,0.4845,-0.2694
0.120122,-0.0428,-0.8066,-2.5960,0.2472,0.4845,-0.2694
0.120509,-0.0428,-0.8066,-2.5960,0.2472,0.4845,-0.2694
0.120743,-0.0428,-0.8066,-2.5960,0.2485,0.5053,-0.2694
0.121057,-0.1088,-0.7884,-2.6125,0.2485,0.5053,-0.2694
0.121394,-0.1088,-0.7884,-2.6125,0.2485,0.5053,-0.2694
0.121683,-0.1088,-0.7884,-2.6125,0.2497,0.5298,-0.2658
0.122028,-0.1740,-0.8003,-2.6349,0.2497,0.5298,-0.2658
0.124257,-0.1740,-0.8003,-2.6349,0.2497,0.5298,-0.2658
0.124535,-0.1740,-0.8003,-2.6349,0.2522,0.5591,-0.2596
0.125236,-0.1769,-0.7824,-2.6151,0.2522,0.5591,-0.2596
0.126031,-0.1769,-0.7824,-2.6151,0.2522,0.5591,-0.2596
0.126487,-0.1769,-0.7824,-2.6151,0.2582,0.5921,-0.2535
0.127116,-0.1740,-0.8225,-2.5961,0.2582,0.5921,-0.2535
0.129401,-0.1740,-0.8225,-2.5961,0.2582,0.5921,-0.2535
0.129994,-0.1740,-0.8225,-2.5961,0.2644,0.6311,-0.2463
0.130549,-0.1433,-0.8197,-2.5597,0.2644,0.6311,-0.2463
0.130910,-0.1433,-0.8197,-2.5597,0.2644,0.6311,-0.2463
0.131131,-0.1433,-0.8197,-2.5597,0.2717,0.6703,-0.2376
0.131404,-0.0789,-0.8312,-2.5801,0.2717,0.6703,-0.2376
0.133044,-0.0789,-0.8312,-2.5801,0.2717,0.6703,-0.2376
0.133491,-0.0789,-0.8312,-2.5801,0.2815,0.7143,-0.2328
0.133829,0.0103,-0.8888,-2.5313,0.2815,0.7143,-0.2328
0.141639,0.0103,-0.8888,-2.5313,0.2815,0.7143,-0.2328
0.142251,0.0103,-0.8888,-2.5313,0.2900,0.7631,-0.2303
0.142717,0.1094,-0.8937,-2.5300,0.2900,0.7631,-0.2303
0.143047,0.1094,-0.8937,-2.5300,0.2900,0.7631,-0.2303
0.143273,0.1094,-0.8937,-2.5300,0.3010,0.8108,-0.2291
0.143601,0.2506,-0.9366,-2.5204,0.3010,0.8108,-0.2291
0.143955,0.2506,-0.9366,-2.5204,0.3010,0.8108,-0.2291
0.144178,0.2506,-0.9366,-2.5204,0.3120,0.8657,-0.2315
0.144462,0.3758,-0.9849,-2.4995,0.3120,0.8657,-0.2315
0.144817,0.3758,-0.9849,-2.4995,0.3120,0.8657,-0.2315
0.145034,0.3758,-0.9849,-2.4995,0.3217,0.9219,-0.2388
0.145324,0.5191,-1.0333,-2.5402,0.3217,0.9219,-0.2388
0.145727,0.5191,-1.0333,-2.5402,0.3217,0.9219,-0.2388
0.145982,0.5191,-1.0333,-2.5402,0.3327,0.9818,-0.2498
0.146288,0.6527,-1.0888,-2.5324,0.3327,0.9818,-0.2498
0.148071,0.6527,-1.0888,-2.5324,0.3327,0.9818,-0.2498
0.148323,0.6527,-1.0888,-2.5324,0.3414,1.0442,-0.2646
0.148705,0.7956,-1.1093,-2.5331,0.3414,1.0442,-0.2646
0.149928,0.7956,-1.1093,-2.5331,0.3414,1.0442,-0.2646
0.150175,0.7956,-1.1093,-2.5331,0.3512,1.1040,-0.2841
0.150519,0.9529,-1.1480,-2.5724,0.3512,1.1040,-0.2841
0.153644,0.9529,-1.1480,-2.5724,0.3512,1.1040,-0.2841
0.154314,0.9529,-1.1480,-2.5724,0.3585,1.1626,-0.3048
0.155056,1.0845,-1.1616,-2.6211,0.3585,1.1626,-0.3048
0.155754,1.0845,-1.1616,-2.6211,0.3585,1.1626,-0.3048
0.156201,1.0845,-1.1616,-2.6211,0.3645,1.2200,-0.3329
0.156792,1.1796,-1.1953,-2.6736,0.3645,1.2200,-0.3329
0.157505,1.1796,-1.1953,-2.6736,0.3645,1.2200,-0.3329
0.157991,1.1796,-1.1953,-2.6736,0.3657,1.2702,-0.3634
0.158576,1.2739,-1.2627,-2.7207,0.3657,1.2702,-0.3634
0.159011,1.2739,-1.2627,-2.7207,0.3657,1.2702,-0.3634
0.159283,1.2739,-1.2627,-2.7207,0.3682,1.3166,-0.3964
0.159701,1.3215,-1.3020,-2.7853,0.3682,1.3166,-0.3964
0.164682,1.3215,-1.3020,-2.7853,0.3682,1.3166,-0.3964
0.164993,1.3215,-1.3020,-2.7853,0.3657,1.3581,-0.4306
0.165469,1.3341,-1.3359,-2.8916,0.3657,1.3581,-0.4306
0.165949,1.3341,-1.3359,-2.8916,0.3657,1.3581,-0.4306
0.166232,1.3341,-1.3359,-2.8916,0.3572,1.3973,-0.4686
0.166683,1.3379,-1.3685,-2.9857,0.3572,1.3973,-0.4686
0.167098,1.3379,-1.3685,-2.9857,0.3572,1.3973,-0.4686
0.167360,1.3379,-1.3685,-2.9857,0.3450,1.4314,-0.5064
0.167777,1.2587,-1.3705,-3.0754,0.3450,1.4314,-0.5064
0.170111,1.2587,-1.3705,-3.0754,0.3450,1.4314,-0.5064
0.170692,1.2587,-1.3705,-3.0754,0.3267,1.4608,-0.5442
0.171334,1.2175,-1.3808,-3.1620,0.3267,1.4608,-0.5442
0.190752,1.2175,-1.3808,-3.1620,0.3267,1.4608,-0.5442
0.191406,1.2175,-1.3808,-3.1620,0.3010,1.4839,-0.5834
0.192077,1.1450,-1.3764,-3.2637,0.3010,1.4839,-0.5834
0.192953,1.1450,-1.3764,-3.2637,0.3010,1.4839,-0.5834
0.193519,1.3601,-1.3252,-3.2690,0.3010,1.4839,-0.5834
0.194279,1.3601,-1.3252,-3.2690,0.2669,1.4997,-0.6214
0.194879,1.3601,-1.3252,-3.2690,0.2669,1.4997,-0.6214
0.195280,1.3601,-1.3252,-3.2690,0.2252,1.5096,-0.6604
0.195801,1.2641,-1.2742,-3.3841,0.2252,1.5096,-0.6604
0.196398,1.1542,-1.2412,-3.4700,0.2252,1.5096,-0.6604
0.197026,1.1542,-1.2412,-3.4700,0.1739,1.5096,-0.6970
0.197590,1.1542,-1.2412,-3.4700,0.1739,1.5096,-0.6970
0.198029,1.1542,-1.2412,-3.4700,0.1141,1.4974,-0.7337
0.198599,1.0492,-1.1881,-3.5680,0.1141,1.4974,-0.7337
0.199190,1.0492,-1.1881,-3.5680,0.1141,1.4974,-0.7337
0.199586,0.9221,-1.1431,-3.6160,0.1141,1.4974,-0.7337
0.200181,0.9221,-1.1431,-3.6160,0.1141,1.4974,-0.7337
0.200596,0.9221,-1.1431,-3.6160,0.0481,1.4741,-0.7740
0.201138,0.9221,-1.1431,-3.6160,0.0481,1.4741,-0.7740
0.201650,0.9221,-1.1431,-3.6160,-0.0264,1.4399,-0.8082
0.202200,0.7831,-1.1191,-3.7070,-0.0264,1.4399,-0.8082
0.202795,0.7831,-1.1191,-3.7070,-0.1094,1.3934,-0.8425
0.203343,0.7831,-1.1191,-3.7070,-0.1094,1.3934,-0.8425
0.203741,0.6442,-1.0972,-3.7840,-0.1094,1.3934,-0.8425
0.204334,0.4841,-1.1071,-3.7840,-0.1094,1.3934,-0.8425
0.204894,0.4841,-1.1071,-3.7840,-0.1094,1.3934,-0.8425
0.205290,0.4841,-1.1071,-3.7840,-0.1913,1.3361,-0.8730
0.205955,0.4841,-1.1071,-3.7840,-0.1913,1.3361,-0.8730
0.206384,0.4841,-1.1071,-3.7840,-0.2817,1.2726,-0.9010
0.206962,0.3773,-1.1153,-3.7991,-0.2817,1.2726,-0.9010
0.207590,0.3773,-1.1153,-3.7991,-0.2817,1.2726,-0.9010
0.208036,0.3773,-1.1153,-3.7991,-0.3733,1.2030,-0.9268
0.208600,0.2756,-1.1321,-3.8127,-0.3733,1.2030,-0.9268
0.209220,0.2756,-1.1321,-3.8127,-0.3733,1.2030,-0.9268
0.209721,0.2756,-1.1321,-3.8127,-0.4674,1.1309,-0.9499
0.210253,0.1536,-1.1296,-3.8254,-0.4674,1.1309,-0.9499
0.210819,0.1536,-1.1296,-3.8254,-0.4674,1.1309,-0.9499
0.211210,0.1536,-1.1296,-3.8254,-0.5603,1.0575,-0.9683
0.211730,0.0374,-1.1640,-3.7573,-0.5603,1.0575,-0.9683
0.212321,0.0374,-1.1640,-3.7573,-0.5603,1.0575,-0.9683
0.212745,0.0374,-1.1640,-3.7573,-0.6531,0.9867,-0.9853
0.213306,-0.0662,-1.2443,-3.6643,-0.6531,0.9867,-0.9853
0.214056,-0.0662,-1.2443,-3.6643,-0.6531,0.9867,-0.9853
0.214510,-0.0662,-1.2443,-3.6643,-0.7411,0.9159,-0.9988
0.215143,-0.2091,-1.2285,-3.5414,-0.7411,0.9159,-0.9988
0.215721,-0.2091,-1.2285,-3.5414,-0.7411,0.9159,-0.9988
0.216137,-0.2091,-1.2285,-3.5414,-0.8242,0.8474,-1.0061
0.216745,-0.3384,-1.2829,-3.3814,-0.8242,0.8474,-1.0061
0.217362,-0.3384,-1.2829,-3.3814,-0.8242,0.8474,-1.0061
0.217907,-0.3384,-1.2829,-3.3814,-0.8999,0.7839,-1.0073
0.218534,-0.5127,-1.3136,-3.2195,-0.8999,0.7839,-1.0073
0.219107,-0.5127,-1.3136,-3.2195,-0.8999,0.7839,-1.0073
0.219496,-0.5127,-1.3136,-3.2195,-0.9659,0.7289,-1.0061
0.220200,-0.6521,-1.2888,-3.0372,-0.9659,0.7289,-1.0061
0.220819,-0.6521,-1.2888,-3.0372,-0.9659,0.7289,-1.0061
0.221256,-0.6521,-1.2888,-3.0372,-1.0233,0.6826,-1.0000
0.221936,-0.7703,-1.3047,-2.8266,-1.0233,0.6826,-1.0000
0.222581,-0.7703,-1.3047,-2.8266,-1.0233,0.6826,-1.0000
0.222982,-0.7703,-1.3047,-2.8266,-1.0673,0.6471,-0.9878
0.223584,-0.8202,-1.3484,-2.6255,-1.0673,0.6471,-0.9878
0.224204,-0.8202,-1.3484,-2.6255,-1.0673,0.6471,-0.9878
0.224614,-0.8202,-1.3484,-2.6255,-1.1015,0.6238,-0.9706
0.225203,-0.8724,-1.3445,-2.4156,-1.1015,0.6238,-0.9706
0.225967,-0.8724,-1.3445,-2.4156,-1.1015,0.6238,-0.9706
0.226363,-0.8724,-1.3445,-2.4156,-1.1271,0.6116,-0.9548
0.226924,-0.9348,-1.3648,-2.1890,-1.1271,0.6116,-0.9548
0.227519,-0.9348,-1.3648,-2.1890,-1.1271,0.6116,-0.9548
0.227938,-0.9348,-1.3648,-2.1890,-1.1393,0.6116,-0.9365
0.228478,-0.9063,-1.4117,-2.0251,-1.1393,0.6116,-0.9365
0.229085,-0.9063,-1.4117,-2.0251,-1.1393,0.6116,-0.9365
0.229584,-0.9063,-1.4117,-2.0251,-1.1418,0.6238,-0.9157
0.230076,-0.8585,-1.4733,-1.8932,-1.1418,0.6238,-0.9157
0.230692,-0.8585,-1.4733,-1.8932,-1.1418,0.6238,-0.9157
0.231085,-0.8585,-1.4733,-1.8932,-1.1345,0.6471,-0.8973
0.231654,-0.7407,-1.5171,-1.7861,-1.1345,0.6471,-0.8973
0.232283,-0.7407,-1.5171,-1.7861,-1.1345,0.6471,-0.8973
0.232681,-0.7407,-1.5171,-1.7861,-1.1186,0.6813,-0.8790
0.233257,-0.6037,-1.5862,-1.7267,-1.1186,0.6813,-0.8790
0.234001,-0.6037,-1.5862,-1.7267,-1.1186,0.6813,-0.8790
0.234400,-0.6037,-1.5862,-1.7267,-1.0953,0.7276,-0.8656
0.234960,-0.4581,-1.6965,-1.6885,-1.0953,0.7276,-0.8656
0.235571,-0.4581,-1.6965,-1.6885,-1.0953,0.7276,-0.8656
0.235971,-0.4581,-1.6965,-1.6885,-1.0673,0.7899,-0.8558
0.236484,-0.2986,-1.7111,-1.7227,-1.0673,0.7899,-0.8558
0.237070,-0.2986,-1.7111,-1.7227,-1.0673,0.7899,-0.8558
0.237524,-0.2986,-1.7111,-1.7227,-1.0318,0.8682,-0.8497
0.238201,-0.1858,-1.7004,-1.7969,-1.0318,0.8682,-0.8497
0.265097,-0.1858,-1.7004,-1.7969,-1.0318,0.8682,-0.8497
0.265786,-0.1858,-1.7004,-1.7969,-0.9965,0.9672,-0.8436
0.266472,-0.0374,-1.6884,-1.8851,-0.9965,0.9672,-0.8436
0.266822,-0.0374,-1.6884,-1.8851,-0.9965,0.9672,-0.8436
0.267072,-0.0374,-1.6884,-1.8851,-0.9597,1.0857,-0.8425
0.267398,0.1023,-1.6286,-1.9808,-0.9597,1.0857,-0.8425
0.267720,0.1023,-1.6286,-1.9808,-0.9597,1.0857,-0.8425
0.268024,0.1023,-1.6286,-1.9808,-0.9219,1.2237,-0.8436
0.268348,0.1597,-1.5775,-2.0680,-0.9219,1.2237,-0.8436
0.269143,0.1597,-1.5775,-2.0680,-0.9219,1.2237,-0.8436
0.269532,0.1597,-1.5775,-2.0680,-0.8827,1.3788,-0.8485
0.270042,0.2182,-1.5682,-2.1315,-0.8827,1.3788,-0.8485
0.270489,0.2182,-1.5682,-2.1315,-0.8827,1.3788,-0.8485
0.270816,0.2182,-1.5682,-2.1315,-0.8474,1.5389,-0.8535
0.271271,0.2181,-1.4785,-2.1392,-0.8474,1.5389,-0.8535
0.271710,0.2181,-1.4785,-2.1392,-0.8474,1.5389,-0.8535
0.272454,0.2181,-1.4785,-2.1392,-0.8119,1.7038,-0.8608
0.272925,0.2153,-1.4175,-2.1230,-0.8119,1.7038,-0.8608
0.273352,0.2153,-1.4175,-2.1230,-0.8119,1.7038,-0.8608
0.273744,0.2153,-1.4175,-2.1230,-0.7826,1.8675,-0.8693
0.274176,0.1789,-1.3780,-2.0680,-0.7826,1.8675,-0.8693
0.274607,0.1789,-1.3780,-2.0680,-0.7826,1.8675,-0.8693
0.274939,0.1789,-1.3780,-2.0680,-0.7557,2.0203,-0.8803
0.275382,0.1237,-1.3208,-1.9863,-0.7557,2.0203,-0.8803
0.275837,0.1237,-1.3208,-1.9863,-0.7557,2.0203,-0.8803
0.276186,0.1237,-1.3208,-1.9863,-0.7337,2.1656,-0.8877
0.276582,0.1335,-1.3328,-1.8909,-0.7337,2.1656,-0.8877
0.277051,0.1335,-1.3328,-1.8909,-0.7337,2.1656,-0.8877
0.277381,0.1335,-1.3328,-1.8909,-0.7167,2.2975,-0.8975
0.277897,0.1039,-1.3109,-1.7928,-0.7167,2.2975,-0.8975
0.278325,0.1039,-1.3109,-1.7928,-0.7167,2.2975,-0.8975
0.278656,0.1039,-1.3109,-1.7928,-0.7056,2.4148,-0.9096
0.279089,0.0450,-1.3637,-1.6823,-0.7056,2.4148,-0.9096
0.279524,0.0450,-1.3637,-1.6823,-0.7056,2.4148,-0.9096
0.279842,0.0450,-1.3637,-1.6823,-0.7008,2.5150,-0.9218
0.280308,-0.0150,-1.4111,-1.5844,-0.7008,2.5150,-0.9218
0.280785,-0.0150,-1.4111,-1.5844,-0.7008,2.5150,-0.9218
0.281127,-0.0150,-1.4111,-1.5844,-0.6996,2.6005,-0.9340
0.281646,-0.0361,-1.4330,-1.4444,-0.6996,2.6005,-0.9340
0.282107,-0.0361,-1.4330,-1.4444,-0.6996,2.6005,-0.9340
0.282433,-0.0361,-1.4330,-1.4444,-0.7069,2.6740,-0.9511
0.282884,-0.0656,-1.4940,-1.2944,-0.7069,2.6740,-0.9511
0.283343,-0.0656,-1.4940,-1.2944,-0.7069,2.6740,-0.9511
0.283665,-0.0656,-1.4940,-1.2944,-0.7167,2.7338,-0.9706
0.284058,-0.0798,-1.5479,-1.1475,-0.7167,2.7338,-0.9706
0.284472,-0.0798,-1.5479,-1.1475,-0.7167,2.7338,-0.9706
0.284790,-0.0798,-1.5479,-1.1475,-0.7314,2.7790,-0.9903
0.285240,-0.0712,-1.6225,-0.9769,-0.7314,2.7790,-0.9903
0.285752,-0.0712,-1.6225,-0.9769,-0.7314,2.7790,-0.9903
0.286074,-0.0712,-1.6225,-0.9769,-0.7484,2.8095,-1.0123
0.286542,0.0000,-1.7023,-0.7841,-0.7484,2.8095,-1.0123
0.286970,0.0000,-1.7023,-0.7841,-0.7484,2.8095,-1.0123
0.287344,0.0000,-1.7023,-0.7841,-0.7679,2.8218,-1.0379
0.287836,0.0552,-1.7733,-0.6080,-0.7679,2.8218,-1.0379
0.288229,0.0552,-1.7733,-0.6080,-0.7679,2.8218,-1.0379
0.288537,0.0552,-1.7733,-0.6080,-0.7912,2.8205,-1.0648
0.288983,0.1400,-1.8837,-0.3405,-0.7912,2.8205,-1.0648
0.289461,0.1400,-1.8837,-0.3405,-0.7912,2.8205,-1.0648
0.289793,0.1400,-1.8837,-0.3405,-0.8132,2.8046,-1.0977
0.290236,0.2150,-1.9531,-0.1655,-0.8132,2.8046,-1.0977
0.290623,0.2150,-1.9531,-0.1655,-0.8132,2.8046,-1.0977
0.290945,0.2150,-1.9531,-0.1655,-0.8339,2.7765,-1.1356
0.291375,0.3195,-2.0394,0.0202,-0.8339,2.7765,-1.1356
0.291750,0.3195,-2.0394,0.0202,-0.8339,2.7765,-1.1356
0.292013,0.3195,-2.0394,0.0202,-0.8559,2.7373,-1.1771
0.292538,0.4247,-2.1642,0.1951,-0.8559,2.7373,-1.1771
0.293004,0.4247,-2.1642,0.1951,-0.8559,2.7373,-1.1771
0.293292,0.4247,-2.1642,0.1951,-0.8767,2.6848,-1.2248
0.293739,0.5440,-2.2247,0.2580,-0.8767,2.6848,-1.2248
0.294115,0.5440,-2.2247,0.2580,-0.8767,2.6848,-1.2248
0.294383,0.5440,-2.2247,0.2580,-0.8987,2.6311,-1.2786
0.294766,0.6472,-2.3090,0.3060,-0.8987,2.6311,-1.2786
0.309192,0.6472,-2.3090,0.3060,-0.8987,2.6311,-1.2786
0.309583,0.6472,-2.3090,0.3060,-0.9219,2.5688,-1.3372
0.309933,0.7743,-2.3464,0.3412,-0.9219,2.5688,-1.3372
0.310257,0.7743,-2.3464,0.3412,-0.9219,2.5688,-1.3372
0.310490,0.7743,-2.3464,0.3412,-0.9452,2.5004,-1.3970
0.310823,0.8977,-2.3742,0.3363,-0.9452,2.5004,-1.3970
0.311156,0.8977,-2.3742,0.3363,-0.9452,2.5004,-1.3970
0.311392,0.8977,-2.3742,0.3363,-0.9695,2.4283,-1.4607
0.311720,0.9643,-2.4129,0.3418,-0.9695,2.4283,-1.4607
0.312096,0.9643,-2.4129,0.3418,-0.9695,2.4283,-1.4607
0.312327,0.9643,-2.4129,0.3418,-0.9915,2.3562,-1.5217
0.312659,0.9835,-2.4123,0.3378,-0.9915,2.3562,-1.5217
0.313003,0.9835,-2.4123,0.3378,-0.9915,2.3562,-1.5217
0.313225,0.9835,-2.4123,0.3378,-1.0087,2.2829,-1.5803
0.313612,0.9568,-2.3977,0.2891,-1.0087,2.2829,-1.5803
0.313941,0.9568,-2.3977,0.2891,-1.0087,2.2829,-1.5803
0.314166,0.9568,-2.3977,0.2891,-1.0270,2.2158,-1.6341
0.314496,0.9074,-2.3375,0.2176,-1.0270,2.2158,-1.6341
0.314839,0.9074,-2.3375,0.2176,-1.0270,2.2158,-1.6341
0.315057,0.9074,-2.3375,0.2176,-1.0428,2.1548,-1.6903
0.315403,0.9034,-2.2628,0.1168,-1.0428,2.1548,-1.6903
0.315739,0.9034,-2.2628,0.1168,-1.0428,2.1548,-1.6903
0.315980,0.9034,-2.2628,0.1168,-1.0588,2.1058,-1.7416
0.316299,0.9736,-2.3907,-0.1409,-1.0588,2.1058,-1.7416
0.316609,0.9736,-2.3907,-0.1409,-1.0588,2.1058,-1.7416
0.316833,0.9736,-2.3907,-0.1409,-1.0770,2.0863,-1.8026
0.317161,1.6574,-3.2986,-0.8978,-1.0770,2.0863,-1.8026
0.317552,1.6574,-3.2986,-0.8978,-1.0770,2.0863,-1.8026
0.317767,1.6574,-3.2986,-0.8978,-1.1027,2.0900,-1.8809
0.318088,1.5505,-3.2545,-0.9574,-1.1027,2.0900,-1.8809
0.320832,1.5505,-3.2545,-0.9574,-1.1027,2.0900,-1.8809
0.321115,1.5505,-3.2545,-0.9574,-1.1271,2.0888,-1.9504
0.321467,1.5160,-2.8896,-0.8827,-1.1271,2.0888,-1.9504
0.323296,1.5160,-2.8896,-0.8827,-1.1271,2.0888,-1.9504
0.323630,1.5160,-2.8896,-0.8827,-1.1503,2.0936,-2.0104
0.324008,1.5080,-2.6514,-0.9843,-1.1503,2.0936,-2.0104
0.325072,1.5080,-2.6514,-0.9843,-1.1503,2.0936,-2.0104
0.325300,1.5080,-2.6514,-0.9843,-1.1748,2.1253,-2.0665
0.325700,1.3805,-2.2646,-1.0371,-1.1748,2.1253,-2.0665
0.327497,1.3805,-2.2646,-1.0371,-1.1748,2.1253,-2.0665
0.327762,1.3805,-2.2646,-1.0371,-1.1993,2.1913,-2.1105
0.328137,1.1374,-1.8343,-1.1483,-1.1993,2.1913,-2.1105
0.329967,1.1374,-1.8343,-1.1483,-1.1993,2.1913,-2.1105
0.330447,1.1374,-1.8343,-1.1483,-1.2236,2.2976,-2.1447
0.331303,0.8246,-1.4124,-1.2674,-1.2236,2.2976,-2.1447
0.332017,0.8246,-1.4124,-1.2674,-1.2236,2.2976,-2.1447
0.332500,0.8246,-1.4124,-1.2674,-1.2420,2.4296,-2.1692
0.333161,0.5792,-1.0990,-1.3553,-1.2420,2.4296,-2.1692
0.335890,0.5792,-1.0990,-1.3553,-1.2420,2.4296,-2.1692
0.336852,0.5792,-1.0990,-1.3553,-1.2541,2.5810,-2.1862
0.337691,0.4038,-0.8841,-1.4214,-1.2541,2.5810,-2.1862
0.338338,0.4038,-0.8841,-1.4214,-1.2541,2.5810,-2.1862
0.338609,0.4038,-0.8841,-1.4214,-1.2628,2.7411,-2.1985
0.339129,0.2503,-0.7510,-1.4195,-1.2628,2.7411,-2.1985
0.339557,0.2503,-0.7510,-1.4195,-1.2628,2.7411,-2.1985
0.339879,0.2503,-0.7510,-1.4195,-1.2664,2.9023,-2.2034
0.340331,0.0557,-0.6992,-1.3499,-1.2664,2.9023,-2.2034
0.343046,0.0557,-0.6992,-1.3499,-1.2664,2.9023,-2.2034
0.343362,0.0557,-0.6992,-1.3499,-1.2628,3.0636,-2.1972
0.343820,-0.1653,-0.6749,-1.3257,-1.2628,3.0636,-2.1972
0.344296,-0.1653,-0.6749,-1.3257,-1.2628,3.0636,-2.1972
0.344610,-0.1653,-0.6749,-1.3257,-1.2554,3.2212,-2.1850
0.345061,-0.4066,-0.7147,-1.2057,-1.2554,3.2212,-2.1850
0.346636,-0.4066,-0.7147,-1.2057,-1.2554,3.2212,-2.1850
0.346965,-0.4066,-0.7147,-1.2057,-1.2444,3.3752,-2.1667
0.347444,-0.6176,-0.7913,-1.1325,-1.2444,3.3752,-2.1667
0.349507,-0.6176,-0.7913,-1.1325,-1.2444,3.3752,-2.1667
0.350277,-0.6176,-0.7913,-1.1325,-1.2323,3.5193,-2.1435
0.350991,-0.8698,-0.8810,-1.0192,-1.2323,3.5193,-2.1435
0.351662,-0.8698,-0.8810,-1.0192,-1.2323,3.5193,-2.1435
0.352092,-0.8698,-0.8810,-1.0192,-1.2200,3.6574,-2.1227
0.352728,-1.0474,-1.0183,-0.9561,-1.2200,3.6574,-2.1227
0.353458,-1.0474,-1.0183,-0.9561,-1.2200,3.6574,-2.1227
0.353899,-1.0474,-1.0183,-0.9561,-1.2115,3.7844,-2.0995
0.354376,-1.2675,-1.1420,-0.7740,-1.2115,3.7844,-2.0995
0.356831,-1.2675,-1.1420,-0.7740,-1.2115,3.7844,-2.0995
0.357314,-1.2675,-1.1420,-0.7740,-1.2041,3.8956,-2.0787
0.358689,-1.4366,-1.3016,-0.5852,-1.2041,3.8956,-2.0787
0.359278,-1.4366,-1.3016,-0.5852,-1.2041,3.8956,-2.0787
0.359648,-1.4366,-1.3016,-0.5852,-1.2041,3.9897,-2.0617
0.360447,-1.5689,-1.4773,-0.4184,-1.2041,3.9897,-2.0617
0.360919,-1.5689,-1.4773,-0.4184,-1.2041,3.9897,-2.0617
0.361174,-1.5689,-1.4773,-0.4184,-1.2078,4.0655,-2.0470
0.361573,-1.6903,-1.5863,-0.1936,-1.2078,4.0655,-2.0470
0.363235,-1.6903,-1.5863,-0.1936,-1.2078,4.0655,-2.0470
0.363519,-1.6903,-1.5863,-0.1936,-1.2224,4.1192,-2.0360
0.363906,-1.7990,-1.7227,0.0889,-1.2224,4.1192,-2.0360
0.366191,-1.7990,-1.7227,0.0889,-1.2224,4.1192,-2.0360
0.367486,-1.7990,-1.7227,0.0889,-1.2481,4.1423,-2.0287
0.368277,-1.8820,-1.8694,0.4340,-1.2481,4.1423,-2.0287
0.368722,-1.8820,-1.8694,0.4340,-1.2481,4.1423,-2.0287
0.368967,-1.8820,-1.8694,0.4340,-1.2761,4.1216,-2.0262
0.369330,-1.9802,-1.9192,0.7923,-1.2761,4.1216,-2.0262
0.369793,-1.9802,-1.9192,0.7923,-1.2761,4.1216,-2.0262
0.370423,-1.9802,-1.9192,0.7923,-1.3141,4.0568,-2.0274
0.370833,-2.0128,-1.9696,1.1449,-1.3141,4.0568,-2.0274
0.372792,-2.0128,-1.9696,1.1449,-1.3141,4.0568,-2.0274
0.373048,-2.0128,-1.9696,1.1449,-1.3604,3.9505,-2.0336
0.373466,-2.0444,-2.0126,1.5003,-1.3604,3.9505,-2.0336
0.374933,-2.0444,-2.0126,1.5003,-1.3604,3.9505,-2.0336
0.375190,-2.0444,-2.0126,1.5003,-1.4094,3.8039,-2.0397
0.375551,-2.0526,-2.0516,1.8261,-1.4094,3.8039,-2.0397
0.377133,-2.0526,-2.0516,1.8261,-1.4094,3.8039,-2.0397
0.377395,-2.0526,-2.0516,1.8261,-1.4669,3.6281,-2.0482
0.377853,-1.9999,-2.1016,2.1415,-1.4669,3.6281,-2.0482
0.381230,-1.9999,-2.1016,2.1415,-1.4669,3.6281,-2.0482
0.381935,-1.9999,-2.1016,2.1415,-1.5267,3.4288,-2.0592
0.382561,-2.0024,-2.1246,2.3883,-1.5267,3.4288,-2.0592
0.382940,-2.0024,-2.1246,2.3883,-1.5267,3.4288,-2.0592
0.383179,-2.0024,-2.1246,2.3883,-1.5914,3.2152,-2.0677
0.383539,-1.9335,-2.1194,2.6030,-1.5914,3.2152,-2.0677
0.383930,-1.9335,-2.1194,2.6030,-1.5914,3.2152,-2.0677
0.384174,-1.9335,-2.1194,2.6030,-1.6574,2.9904,-2.0763
0.384596,-1.8408,-2.1301,2.7836,-1.6574,2.9904,-2.0763
0.386958,-1.8408,-2.1301,2.7836,-1.6574,2.9904,-2.0763
0.387337,-1.8408,-2.1301,2.7836,-1.7270,2.7607,-2.0849
0.387841,-1.7449,-2.1113,2.9510,-1.7270,2.7607,-2.0849
0.389314,-1.7449,-2.1113,2.9510,-1.7270,2.7607,-2.0849
0.389843,-1.7449,-2.1113,2.9510,-1.7942,2.5285,-2.0947
0.390560,-1.5952,-2.0405,3.0957,-1.7942,2.5285,-2.0947
0.391278,-1.5952,-2.0405,3.0957,-1.7942,2.5285,-2.0947
0.391729,-1.5952,-2.0405,3.0957,-1.8602,2.2964,-2.1057
0.392397,-1.4782,-2.0195,3.2271,-1.8602,2.2964,-2.1057
0.400037,-1.4782,-2.0195,3.2271,-1.8602,2.2964,-2.1057
0.400603,-1.4782,-2.0195,3.2271,-1.9188,2.0703,-2.1154
0.401363,-1.3544,-1.9413,3.2521,-1.9188,2.0703,-2.1154
0.402167,-1.3544,-1.9413,3.2521,-1.9188,2.0703,-2.1154
0.402692,-1.3544,-1.9413,3.2521,-1.9750,1.8590,-2.1277
0.403419,-1.2844,-1.8272,3.2938,-1.9750,1.8590,-2.1277
0.404143,-1.2844,-1.8272,3.2938,-1.9750,1.8590,-2.1277
0.404658,-1.2844,-1.8272,3.2938,-2.0201,1.6697,-2.1410
0.405320,-1.2561,-1.6902,3.2800,-2.0201,1.6697,-2.1410
0.406092,-1.2561,-1.6902,3.2800,-2.0201,1.6697,-2.1410
0.406591,-1.2561,-1.6902,3.2800,-2.0606,1.5011,-2.1557
0.407253,-1.2169,-1.5305,3.2684,-2.0606,1.5011,-2.1557
0.407948,-1.2169,-1.5305,3.2684,-2.0606,1.5011,-2.1557
0.408427,-1.2169,-1.5305,3.2684,-2.0923,1.3531,-2.1717
0.409070,-1.2679,-1.4742,3.2764,-2.0923,1.3531,-2.1717
0.409806,-1.2679,-1.4742,3.2764,-2.0923,1.3531,-2.1717
0.410281,-1.2679,-1.4742,3.2764,-2.1131,1.2200,-2.1839
0.410820,-1.3377,-1.2126,3.3317,-2.1131,1.2200,-2.1839
0.411278,-1.3377,-1.2126,3.3317,-2.1131,1.2200,-2.1839
0.411635,-1.3377,-1.2126,3.3317,-2.1277,1.1088,-2.1912
0.412050,-1.4259,-1.0448,3.2790,-2.1277,1.1088,-2.1912
0.412612,-1.4259,-1.0448,3.2790,-2.1277,1.1088,-2.1912
0.412921,-1.4259,-1.0448,3.2790,-2.1339,1.0295,-2.1937
0.413347,-1.5248,-0.9572,3.2703,-2.1339,1.0295,-2.1937
0.413866,-1.5248,-0.9572,3.2703,-2.1339,1.0295,-2.1937
0.414199,-1.5248,-0.9572,3.2703,-2.1314,0.9769,-2.1875
0.414621,-1.7177,-0.8349,3.2543,-2.1314,0.9769,-2.1875
0.415067,-1.7177,-0.8349,3.2543,-2.1314,0.9769,-2.1875
0.415387,-1.7177,-0.8349,3.2543,-2.1191,0.9452,-2.1740
0.415803,-1.8305,-0.7401,3.2552,-2.1191,0.9452,-2.1740
0.418153,-1.8305,-0.7401,3.2552,-2.1191,0.9452,-2.1740
0.418950,-1.8305,-0.7401,3.2552,-2.0984,0.9292,-2.1532
0.419907,-1.9088,-0.6132,3.2111,-2.0984,0.9292,-2.1532
0.420801,-1.9088,-0.6132,3.2111,-2.0984,0.9292,-2.1532
0.421567,-1.9088,-0.6132,3.2111,-2.0739,0.9329,-2.1264
0.422491,-2.0225,-0.5392,3.2094,-2.0739,0.9329,-2.1264
0.423297,-2.0225,-0.5392,3.2094,-2.0739,0.9329,-2.1264
0.423919,-2.0225,-0.5392,3.2094,-2.0373,0.9512,-2.0910
0.424738,-2.0950,-0.5056,3.1464,-2.0373,0.9512,-2.0910
0.425823,-2.0950,-0.5056,3.1464,-2.0373,0.9512,-2.0910
0.426112,-2.0950,-0.5056,3.1464,-1.9946,0.9807,-2.0507
0.426527,-2.1152,-0.4435,3.1082,-1.9946,0.9807,-2.0507
0.426931,-2.1152,-0.4435,3.1082,-1.9946,0.9807,-2.0507
0.427195,-2.1152,-0.4435,3.1082,-1.9456,1.0185,-2.0067
0.427576,-2.0792,-0.4179,3.0548,-1.9456,1.0185,-2.0067
0.436782,-2.0792,-0.4179,3.0548,-1.9456,1.0185,-2.0067
0.437067,-2.0792,-0.4179,3.0548,-1.8883,1.0685,-1.9602
0.437520,-2.0347,-0.4361,3.0612,-1.8883,1.0685,-1.9602
0.437905,-2.0347,-0.4361,3.0612,-1.8883,1.0685,-1.9602
0.438129,-2.0347,-0.4361,3.0612,-1.8198,1.1309,-1.9077
0.438435,-1.9773,-0.5269,3.0466,-1.8198,1.1309,-1.9077
0.438786,-1.9773,-0.5269,3.0466,-1.8198,1.1309,-1.9077
0.439002,-1.9773,-0.5269,3.0466,-1.7465,1.2042,-1.8551
0.439342,-1.9144,-0.5325,3.1259,-1.7465,1.2042,-1.8551
0.439687,-1.9144,-0.5325,3.1259,-1.7465,1.2042,-1.8551
0.439915,-1.9144,-0.5325,3.1259,-1.6647,1.2970,-1.8014
0.440248,-1.7900,-0.5689,3.1102,-1.6647,1.2970,-1.8014
0.440600,-1.7900,-0.5689,3.1102,-1.6647,1.2970,-1.8014
0.440839,-1.7900,-0.5689,3.1102,-1.5742,1.4118,-1.7526
0.441157,-1.6203,-0.6154,3.1635,-1.5742,1.4118,-1.7526
0.441568,-1.6203,-0.6154,3.1635,-1.5742,1.4118,-1.7526
0.441800,-1.6203,-0.6154,3.1635,-1.4777,1.5451,-1.7036
0.442130,-1.4259,-0.6664,3.1707,-1.4777,1.5451,-1.7036
0.444402,-1.4259,-0.6664,3.1707,-1.4777,1.5451,-1.7036
0.444984,-1.4259,-0.6664,3.1707,-1.3764,1.6929,-1.6596
0.445724,-1.1567,-0.6804,3.2072,-1.3764,1.6929,-1.6596
0.446403,-1.1567,-0.6804,3.2072,-1.3764,1.6929,-1.6596
0.446673,-1.1567,-0.6804,3.2072,-1.2726,1.8517,-1.6230
0.447014,-0.9275,-0.7189,3.2449,-1.2726,1.8517,-1.6230
0.449336,-0.9275,-0.7189,3.2449,-1.2726,1.8517,-1.6230
0.449669,-0.9275,-0.7189,3.2449,-1.1626,2.0068,-1.5925
0.450155,-0.6336,-0.7402,3.3549,-1.1626,2.0068,-1.5925
0.450519,-0.6336,-0.7402,3.3549,-1.1626,2.0068,-1.5925
0.450741,-0.6336,-0.7402,3.3549,-1.0502,2.1548,-1.5718
0.451034,-0.3521,-0.7786,3.4479,-1.0502,2.1548,-1.5718
0.452837,-0.3521,-0.7786,3.4479,-1.0502,2.1548,-1.5718
0.453243,-0.3521,-0.7786,3.4479,-0.9329,2.2952,-1.5570
0.453879,-0.1481,-0.7778,3.5416,-0.9329,2.2952,-1.5570
0.456484,-0.1481,-0.7778,3.5416,-0.9329,2.2952,-1.5570
0.457049,-0.1481,-0.7778,3.5416,-0.8180,2.4284,-1.5533
0.457895,0.0871,-0.8018,3.6403,-0.8180,2.4284,-1.5533
0.458581,0.0871,-0.8018,3.6403,-0.8180,2.4284,-1.5533
0.458912,0.0871,-0.8018,3.6403,-0.7008,2.5482,-1.5583
0.459343,0.2713,-0.8492,3.7674,-0.7008,2.5482,-1.5583
0.459853,0.2713,-0.8492,3.7674,-0.7008,2.5482,-1.5583
0.460179,0.2713,-0.8492,3.7674,-0.5846,2.6569,-1.5741
0.460674,0.3935,-0.9355,3.8038,-0.5846,2.6569,-1.5741
0.462985,0.3935,-0.9355,3.8038,-0.5846,2.6569,-1.5741
0.463370,0.3935,-0.9355,3.8038,-0.4686,2.7497,-1.5986
0.463840,0.5373,-1.0126,3.9406,-0.4686,2.7497,-1.5986
0.466311,0.5373,-1.0126,3.9406,-0.4686,2.7497,-1.5986
0.467013,0.5373,-1.0126,3.9406,-0.3600,2.8267,-1.6266
0.467750,0.5915,-1.1162,3.9945,-0.3600,2.8267,-1.6266
0.468473,0.5915,-1.1162,3.9945,-0.3600,2.8267,-1.6266
0.468826,0.5915,-1.1162,3.9945,-0.2548,2.8890,-1.6609
0.469298,0.6418,-1.2113,3.9720,-0.2548,2.8890,-1.6609
0.469944,0.6418,-1.2113,3.9720,-0.2548,2.8890,-1.6609
0.470275,0.6418,-1.2113,3.9720,-0.1595,2.9341,-1.6963
0.470703,0.6361,-1.2769,4.0000,-0.1595,2.9341,-1.6963
0.473817,0.6361,-1.2769,4.0000,-0.1595,2.9341,-1.6963
0.474215,0.6361,-1.2769,4.0000,-0.0716,2.9623,-1.7329
0.474709,0.6003,-1.3838,3.9765,-0.0716,2.9623,-1.7329
0.475175,0.6003,-1.3838,3.9765,-0.0716,2.9623,-1.7329
0.475506,0.6003,-1.3838,3.9765,0.0115,2.9758,-1.7746
0.475945,0.5369,-1.4391,3.9379,0.0115,2.9758,-1.7746
0.476453,0.5369,-1.4391,3.9379,0.0115,2.9758,-1.7746
0.476795,0.5369,-1.4391,3.9379,0.0811,2.9721,-1.8173
0.477243,0.4779,-1.4462,3.9213,0.0811,2.9721,-1.8173
0.480747,0.4779,-1.4462,3.9213,0.0811,2.9721,-1.8173
0.481070,0.4779,-1.4462,3.9213,0.1446,2.9549,-1.8637
0.481458,0.4050,-1.5192,3.9092,0.1446,2.9549,-1.8637
0.481837,0.4050,-1.5192,3.9092,0.1446,2.9549,-1.8637
0.482077,0.4050,-1.5192,3.9092,0.1972,2.9244,-1.9126
0.482415,0.3659,-1.5688,3.9176,0.1972,2.9244,-1.9126
0.483604,0.3659,-1.5688,3.9176,0.1972,2.9244,-1.9126
0.483858,0.3659,-1.5688,3.9176,0.2375,2.8816,-1.9651
0.484194,0.3824,-1.6199,3.8869,0.2375,2.8816,-1.9651
0.485820,0.3824,-1.6199,3.8869,0.2375,2.8816,-1.9651
0.486090,0.3824,-1.6199,3.8869,0.2729,2.8278,-2.0189
0.486446,0.3257,-1.6491,3.8964,0.2729,2.8278,-2.0189
0.488386,0.3257,-1.6491,3.8964,0.2729,2.8278,-2.0189
0.489230,0.3257,-1.6491,3.8964,0.3010,2.7618,-2.0752
0.489837,0.3381,-1.7345,3.8946,0.3010,2.7618,-2.0752
0.490768,0.3381,-1.7345,3.8946,0.3010,2.7618,-2.0752
0.491025,0.3381,-1.7345,3.8946,0.3217,2.6873,-2.1350
0.491358,0.3429,-1.7669,3.8653,0.3217,2.6873,-2.1350
0.493110,0.3429,-1.7669,3.8653,0.3217,2.6873,-2.1350
0.493354,0.3429,-1.7669,3.8653,0.3365,2.6092,-2.1935
0.494007,0.3259,-1.7991,3.8486,0.3365,2.6092,-2.1935
0.497393,0.3259,-1.7991,3.8486,0.3365,2.6092,-2.1935
0.497950,0.3259,-1.7991,3.8486,0.3438,2.5249,-2.2510
0.498635,0.2910,-1.8153,3.7943,0.3438,2.5249,-2.2510
0.499319,0.2910,-1.8153,3.7943,0.3438,2.5249,-2.2510
0.499763,0.2910,-1.8153,3.7943,0.3487,2.4442,-2.3084
0.500401,0.2324,-1.8093,3.7435,0.3487,2.4442,-2.3084
0.501043,0.2324,-1.8093,3.7435,0.3487,2.4442,-2.3084
0.501532,0.2324,-1.8093,3.7435,0.3499,2.3624,-2.3621
0.501921,0.1631,-1.7053,3.6603,0.3499,2.3624,-2.3621
0.502264,0.1631,-1.7053,3.6603,0.3499,2.3624,-2.3621
0.502503,0.1631,-1.7053,3.6603,0.3450,2.2891,-2.4111
0.502897,0.0483,-1.6553,3.5996,0.3450,2.2891,-2.4111
0.505307,0.0483,-1.6553,3.5996,0.3450,2.2891,-2.4111
0.505730,0.0483,-1.6553,3.5996,0.3352,2.2146,-2.4551
0.506234,-0.1750,-1.5756,3.5311,0.3352,2.2146,-2.4551
0.508016,-0.1750,-1.5756,3.5311,0.3352,2.2146,-2.4551
0.508526,-0.1750,-1.5756,3.5311,0.3255,2.1425,-2.4881
0.509161,-0.3895,-1.4641,3.4486,0.3255,2.1425,-2.4881
0.509850,-0.3895,-1.4641,3.4486,0.3255,2.1425,-2.4881
0.510178,-0.3895,-1.4641,3.4486,0.3108,2.0716,-2.5161
0.510627,-0.5015,-1.2872,3.3996,0.3108,2.0716,-2.5161
0.515519,-0.5015,-1.2872,3.3996,0.3108,2.0716,-2.5161
0.515935,-0.5015,-1.2872,3.3996,0.2974,2.0032,-2.5381
0.516445,-0.5965,-1.1060,3.3076,0.2974,2.0032,-2.5381
0.516998,-0.5965,-1.1060,3.3076,0.2974,2.0032,-2.5381
0.517352,-0.5965,-1.1060,3.3076,0.2852,1.9410,-2.5539
0.517864,-0.6649,-0.9713,3.1794,0.2852,1.9410,-2.5539
0.518387,-0.6649,-0.9713,3.1794,0.2852,1.9410,-2.5539
0.518724,-0.6649,-0.9713,3.1794,0.2742,1.8932,-2.5649
0.519194,-0.7438,-0.8660,3.0067,0.2742,1.8932,-2.5649
0.519734,-0.7438,-0.8660,3.0067,0.2742,1.8932,-2.5649
0.520105,-0.7438,-0.8660,3.0067,0.2680,1.8567,-2.5699
0.520603,-0.7754,-0.6856,2.8819,0.2680,1.8567,-2.5699
0.523210,-0.7754,-0.6856,2.8819,0.2680,1.8567,-2.5699
0.524005,-0.7754,-0.6856,2.8819,0.2607,1.8432,-2.5736
0.524769,-0.8150,-0.5517,2.7099,0.2607,1.8432,-2.5736
0.525559,-0.8150,-0.5517,2.7099,0.2607,1.8432,-2.5736
0.526017,-0.8150,-0.5517,2.7099,0.2570,1.8469,-2.5736
0.526514,-0.9120,-0.4819,2.5493,0.2570,1.8469,-2.5736
0.527103,-0.9120,-0.4819,2.5493,0.2570,1.8469,-2.5736
0.527462,-0.9120,-0.4819,2.5493,0.2559,1.8689,-2.5759
0.527963,-1.0137,-0.3664,2.3983,0.2559,1.8689,-2.5759
0.531415,-1.0137,-0.3664,2.3983,0.2559,1.8689,-2.5759
0.531696,-1.0137,-0.3664,2.3983,0.2534,1.9104,-2.5759
0.532040,-1.0843,-0.2858,2.2141,0.2534,1.9104,-2.5759
0.532422,-1.0843,-0.2858,2.2141,0.2534,1.9104,-2.5759
0.532638,-1.0843,-0.2858,2.2141,0.2534,1.9752,-2.5747
0.532925,-1.1705,-0.2204,2.0993,0.2534,1.9752,-2.5747
0.533262,-1.1705,-0.2204,2.0993,0.2534,1.9752,-2.5747
0.533533,-1.1705,-0.2204,2.0993,0.2570,2.0593,-2.5736
0.533808,-1.3100,-0.2160,2.0004,0.2570,2.0593,-2.5736
0.535933,-1.3100,-0.2160,2.0004,0.2570,2.0593,-2.5736
0.536335,-1.3100,-0.2160,2.0004,0.2607,2.1669,-2.5724
0.536663,-1.4685,-0.2927,1.9179,0.2607,2.1669,-2.5724
0.538095,-1.4685,-0.2927,1.9179,0.2607,2.1669,-2.5724
0.538327,-1.4685,-0.2927,1.9179,0.2692,2.2914,-2.5674
0.538703,-1.6249,-0.3573,1.8698,0.2692,2.2914,-2.5674
0.540927,-1.6249,-0.3573,1.8698,0.2692,2.2914,-2.5674
0.541483,-1.6249,-0.3573,1.8698,0.2754,2.4247,-2.5626
0.541918,-1.7393,-0.4250,1.8715,0.2754,2.4247,-2.5626
0.542883,-1.7393,-0.4250,1.8715,0.2754,2.4247,-2.5626
0.543139,-1.7393,-0.4250,1.8715,0.2827,2.5640,-2.5589
0.543637,-1.8377,-0.4967,1.9547,0.2827,2.5640,-2.5589
0.546747,-1.8377,-0.4967,1.9547,0.2827,2.5640,-2.5589
0.547097,-1.8377,-0.4967,1.9547,0.2887,2.6958,-2.5576
0.547531,-2.0293,-0.5885,2.0915,0.2887,2.6958,-2.5576
0.547930,-2.0293,-0.5885,2.0915,0.2887,2.6958,-2.5576
0.548176,-2.0293,-0.5885,2.0915,0.2949,2.8095,-2.5589
0.548484,-2.0952,-0.7489,2.2155,0.2949,2.8095,-2.5589
0.551398,-2.0952,-0.7489,2.2155,0.2949,2.8095,-2.5589
0.552159,-2.0952,-0.7489,2.2155,0.2998,2.9084,-2.5638
0.552719,-2.1559,-0.8992,2.4182,0.2998,2.9084,-2.5638
0.553522,-2.1559,-0.8992,2.4182,0.2998,2.9084,-2.5638
0.553939,-2.1559,-0.8992,2.4182,0.3047,2.9928,-2.5736
0.554432,-2.2055,-1.1401,2.5915,0.3047,2.9928,-2.5736
0.555053,-2.2055,-1.1401,2.5915,0.3047,2.9928,-2.5736
0.555436,-2.2055,-1.1401,2.5915,0.3072,3.0746,-2.5869
0.556003,-2.1942,-1.3166,2.7445,0.3072,3.0746,-2.5869
0.558508,-2.1942,-1.3166,2.7445,0.3072,3.0746,-2.5869
0.558930,-2.1942,-1.3166,2.7445,0.3097,3.1479,-2.6054
0.559554,-2.1459,-1.5684,2.8886,0.3097,3.1479,-2.6054
0.560207,-2.1459,-1.5684,2.8886,0.3097,3.1479,-2.6054
0.560602,-2.1459,-1.5684,2.8886,0.3120,3.2187,-2.6309
0.561199,-2.1160,-1.8315,3.0233,0.3120,3.2187,-2.6309
0.566119,-2.1160,-1.8315,3.0233,0.3120,3.2187,-2.6309
0.566769,-2.1160,-1.8315,3.0233,0.3145,3.2847,-2.6627
0.567501,-2.1306,-2.0179,3.1301,0.3145,3.2847,-2.6627
0.568139,-2.1306,-2.0179,3.1301,0.3145,3.2847,-2.6627
0.568596,-2.1306,-2.0179,3.1301,0.3169,3.3447,-2.7019
0.569234,-2.0468,-2.2514,3.2621,0.3169,3.3447,-2.7019
0.569930,-2.0468,-2.2514,3.2621,0.3169,3.3447,-2.7019
0.570354,-2.0468,-2.2514,3.2621,0.3205,3.3898,-2.7519
0.571021,-2.0118,-2.4637,3.3418,0.3205,3.3898,-2.7519
0.571702,-2.0118,-2.4637,3.3418,0.3205,3.3898,-2.7519
0.572155,-2.0118,-2.4637,3.3418,0.3230,3.4228,-2.8082
0.572713,-2.0379,-2.6470,3.4842,0.3230,3.4228,-2.8082
0.573463,-2.0379,-2.6470,3.4842,0.3230,3.4228,-2.8082
0.573928,-2.0379,-2.6470,3.4842,0.3267,3.4425,-2.8716
0.575105,-2.0132,-2.8208,3.5579,0.3267,3.4425,-2.8716
0.575757,-2.0132,-2.8208,3.5579,0.3267,3.4425,-2.8716
0.576214,-2.0132,-2.8208,3.5579,0.3340,3.4497,-2.9376
0.576741,-1.9973,-2.9660,3.5926,0.3340,3.4497,-2.9376
0.577314,-1.9973,-2.9660,3.5926,0.3340,3.4497,-2.9376
0.577815,-1.9973,-2.9660,3.5926,0.3377,3.4497,-3.0048
0.578398,-1.9643,-2.9787,3.7704,0.3377,3.4497,-3.0048
0.579010,-1.9643,-2.9787,3.7704,0.3377,3.4497,-3.0048
0.579478,-1.9643,-2.9787,3.7704,0.3438,3.4375,-3.0696
0.580059,-1.9464,-2.9887,3.8767,0.3438,3.4375,-3.0696
0.580686,-1.9464,-2.9887,3.8767,0.3438,3.4375,-3.0696
0.581108,-1.9464,-2.9887,3.8767,0.3512,3.4167,-3.1318
0.581708,-1.9060,-2.9477,3.9733,0.3512,3.4167,-3.1318
0.593392,-1.9060,-2.9477,3.9733,0.3512,3.4167,-3.1318
0.593964,-1.9060,-2.9477,3.9733,0.3609,3.3862,-3.1916
0.594493,-1.9206,-2.9745,4.0091,0.3609,3.3862,-3.1916
0.594995,-1.9206,-2.9745,4.0091,0.3609,3.3862,-3.1916
0.595330,-1.9206,-2.9745,4.0091,0.3657,3.3520,-3.2454
0.595775,-1.9868,-2.9455,4.0401,0.3657,3.3520,-3.2454
0.596254,-1.9868,-2.9455,4.0401,0.3657,3.3520,-3.2454
0.596587,-1.9868,-2.9455,4.0401,0.3707,3.3179,-3.2919
0.597075,-2.0656,-2.8416,4.0593,0.3707,3.3179,-3.2919
0.597577,-2.0656,-2.8416,4.0593,0.3707,3.3179,-3.2919
0.597896,-2.0656,-2.8416,4.0593,0.3780,3.2750,-3.3322
0.598328,-2.2450,-2.7281,4.0495,0.3780,3.2750,-3.3322
0.598814,-2.2450,-2.7281,4.0495,0.3780,3.2750,-3.3322
0.599142,-2.2450,-2.7281,4.0495,0.3842,3.2262,-3.3615
0.599567,-2.4890,-2.5534,4.0197,0.3842,3.2262,-3.3615
0.600009,-2.4890,-2.5534,4.0197,0.3842,3.2262,-3.3615
0.600316,-2.4890,-2.5534,4.0197,0.3950,3.1761,-3.3824
0.600695,-2.7543,-2.3475,3.9787,0.3950,3.1761,-3.3824
0.601122,-2.7543,-2.3475,3.9787,0.3950,3.1761,-3.3824
0.601632,-2.7543,-2.3475,3.9787,0.4085,3.1309,-3.3921
0.602117,-3.0730,-2.1617,3.9296,0.4085,3.1309,-3.3921
0.602606,-3.0730,-2.1617,3.9296,0.4085,3.1309,-3.3921
0.602890,-3.0730,-2.1617,3.9296,0.4245,3.0808,-3.3909
0.603286,-3.3836,-1.9154,3.9463,0.4245,3.0808,-3.3909
0.603698,-3.3836,-1.9154,3.9463,0.4245,3.0808,-3.3909
0.603978,-3.3836,-1.9154,3.9463,0.4477,3.0271,-3.3786
0.604362,-3.9643,-1.6877,4.1727,0.4477,3.0271,-3.3786
0.604777,-3.9643,-1.6877,4.1727,0.4477,3.0271,-3.3786
0.605051,-3.9643,-1.6877,4.1727,0.4892,2.9818,-3.3432
0.605389,-4.7517,-1.5461,4.7278,0.4892,2.9818,-3.3432
0.610585,-4.7517,-1.5461,4.7278,0.4892,2.9818,-3.3432
0.611323,-4.7517,-1.5461,4.7278,0.5490,2.9391,-3.2906
0.611706,-5.3224,-1.2870,5.1550,0.5490,2.9391,-3.2906
0.612113,-5.3224,-1.2870,5.1550,0.5490,2.9391,-3.2906
0.612382,-5.3224,-1.2870,5.1550,0.6236,2.8780,-3.2234
0.612777,-5.4996,-0.9370,5.2723,0.6236,2.8780,-3.2234
0.613185,-5.4996,-0.9370,5.2723,0.6236,2.8780,-3.2234
0.613487,-5.4996,-0.9370,5.2723,0.7030,2.7680,-3.1526
0.613873,-5.5383,-0.5620,5.1502,0.7030,2.7680,-3.1526
0.614246,-5.5383,-0.5620,5.1502,0.7030,2.7680,-3.1526
0.614475,-5.5383,-0.5620,5.1502,0.7861,2.6349,-3.0781
0.614810,-5.6956,-0.3282,4.9953,0.7861,2.6349,-3.0781
0.617055,-5.6956,-0.3282,4.9953,0.7861,2.6349,-3.0781
0.617311,-5.6956,-0.3282,4.9953,0.8729,2.5066,-2.9998
0.617710,-5.9034,-0.2834,4.8850,0.8729,2.5066,-2.9998
0.619622,-5.9034,-0.2834,4.8850,0.8729,2.5066,-2.9998
0.620268,-5.9034,-0.2834,4.8850,0.9620,2.3979,-2.9144
0.620974,-6.0836,-0.2979,4.8023,0.9620,2.3979,-2.9144
0.621645,-6.0836,-0.2979,4.8023,0.9620,2.3979,-2.9144
0.621867,-6.0836,-0.2979,4.8023,1.0537,2.3074,-2.8252
0.622210,-6.1506,-0.3247,4.6187,1.0537,2.3074,-2.8252
0.624779,-6.1506,-0.3247,4.6187,1.0537,2.3074,-2.8252
0.625202,-6.1506,-0.3247,4.6187,1.1440,2.2219,-2.7336
0.625861,-6.0714,-0.3270,4.2812,1.1440,2.2219,-2.7336
0.626384,-6.0714,-0.3270,4.2812,1.1440,2.2219,-2.7336
0.626780,-6.0714,-0.3270,4.2812,1.2295,2.1376,-2.6481
0.627365,-5.9122,-0.3445,3.8959,1.2295,2.1376,-2.6481
0.636907,-5.9122,-0.3445,3.8959,1.2295,2.1376,-2.6481
0.637572,-5.9122,-0.3445,3.8959,1.3090,2.0618,-2.5686
0.638237,-5.8067,-0.4381,3.5340,1.3090,2.0618,-2.5686
0.638842,-5.8067,-0.4381,3.5340,1.3090,2.0618,-2.5686
0.639224,-5.8067,-0.4381,3.5340,1.3835,2.0008,-2.4941
0.639834,-5.7510,-0.5564,3.1630,1.3835,2.0008,-2.4941
0.640514,-5.7510,-0.5564,3.1630,1.3835,2.0008,-2.4941
0.640860,-5.7510,-0.5564,3.1630,1.4519,1.9555,-2.4221
0.641262,-5.6269,-0.6507,2.7771,1.4519,1.9555,-2.4221
0.641778,-5.6269,-0.6507,2.7771,1.4519,1.9555,-2.4221
0.642066,-5.6269,-0.6507,2.7771,1.5118,1.9312,-2.3573
0.642478,-5.5154,-0.7547,2.4528,1.5118,1.9312,-2.3573
0.642912,-5.5154,-0.7547,2.4528,1.5118,1.9312,-2.3573
0.643200,-5.5154,-0.7547,2.4528,1.5643,1.9262,-2.2986
0.643611,-5.4413,-0.7970,2.1258,1.5643,1.9262,-2.2986
0.644075,-5.4413,-0.7970,2.1258,1.5643,1.9262,-2.2986
0.644367,-5.4413,-0.7970,2.1258,1.6094,1.9275,-2.2413
0.644785,-5.3377,-0.8316,1.8172,1.6094,1.9275,-2.2413
0.645216,-5.3377,-0.8316,1.8172,1.6094,1.9275,-2.2413
0.645526,-5.3377,-0.8316,1.8172,1.6474,1.9372,-2.1935
0.645908,-5.1266,-0.8575,1.5221,1.6474,1.9372,-2.1935
0.646385,-5.1266,-0.8575,1.5221,1.6474,1.9372,-2.1935
0.646691,-5.1266,-0.8575,1.5221,1.6840,1.9495,-2.1532
0.647073,-4.9121,-0.9374,1.2937,1.6840,1.9495,-2.1532
0.647607,-4.9121,-0.9374,1.2937,1.6840,1.9495,-2.1532
0.647877,-4.9121,-0.9374,1.2937,1.7134,1.9543,-2.1215
0.648277,-4.6762,-0.9430,1.0649,1.7134,1.9543,-2.1215
0.653744,-4.6762,-0.9430,1.0649,1.7134,1.9543,-2.1215
0.654391,-4.6762,-0.9430,1.0649,1.7390,1.9555,-2.0982
0.655027,-4.3342,-0.9833,0.8837,1.7390,1.9555,-2.0982
0.655687,-4.3342,-0.9833,0.8837,1.7390,1.9555,-2.0982
0.656114,-4.3342,-0.9833,0.8837,1.7622,1.9580,-2.0849
0.656708,-4.1313,-1.0099,0.6882,1.7622,1.9580,-2.0849
0.657359,-4.1313,-1.0099,0.6882,1.7622,1.9580,-2.0849
0.657852,-4.1313,-1.0099,0.6882,1.7830,1.9580,-2.0775
0.658253,-3.9074,-1.0438,0.4944,1.7830,1.9580,-2.0775
0.658688,-3.9074,-1.0438,0.4944,1.7830,1.9580,-2.0775
0.658984,-3.9074,-1.0438,0.4944,1.8050,1.9543,-2.0763
0.659314,-3.6155,-1.0318,0.2833,1.8050,1.9543,-2.0763
0.659707,-3.6155,-1.0318,0.2833,1.8050,1.9543,-2.0763
0.660010,-3.6155,-1.0318,0.2833,1.8220,1.9555,-2.0885
0.660382,-3.2270,-1.0128,0.1729,1.8220,1.9555,-2.0885
0.660793,-3.2270,-1.0128,0.1729,1.8220,1.9555,-2.0885
0.661073,-3.2270,-1.0128,0.1729,1.8404,1.9580,-2.1080
0.661490,-3.1110,-1.1473,0.0723,1.8404,1.9580,-2.1080
0.665267,-3.1110,-1.1473,0.0723,1.8404,1.9580,-2.1080
0.665797,-3.1110,-1.1473,0.0723,1.8587,1.9531,-2.1350
0.666435,-2.9676,-1.2714,-0.0507,1.8587,1.9531,-2.1350
0.667117,-2.9676,-1.2714,-0.0507,1.8587,1.9531,-2.1350
0.667540,-2.9676,-1.2714,-0.0507,1.8783,1.9433,-2.1692
0.668164,-2.7470,-1.3728,-0.0833,1.8783,1.9433,-2.1692
0.668927,-2.7470,-1.3728,-0.0833,1.8783,1.9433,-2.1692
0.669378,-2.7470,-1.3728,-0.0833,1.9015,1.9335,-2.2107
0.669930,-2.4646,-1.5213,-0.0934,1.9015,1.9335,-2.2107
0.671438,-2.4646,-1.5213,-0.0934,1.9015,1.9335,-2.2107
0.671693,-2.4646,-1.5213,-0.0934,1.9198,1.9275,-2.2608
0.672055,-2.3162,-1.6359,-0.0762,1.9198,1.9275,-2.2608
0.673150,-2.3162,-1.6359,-0.0762,1.9198,1.9275,-2.2608
0.673447,-2.3162,-1.6359,-0.0762,1.9430,1.9177,-2.3108
0.673855,-2.2387,-1.7466,-0.0278,1.9430,1.9177,-2.3108
0.675449,-2.2387,-1.7466,-0.0278,1.9430,1.9177,-2.3108
0.675862,-2.2387,-1.7466,-0.0278,1.9638,1.9030,-2.3610
0.676487,-2.2345,-1.8906,-0.0371,1.9638,1.9030,-2.3610
0.679134,-2.2345,-1.8906,-0.0371,1.9638,1.9030,-2.3610
0.679486,-2.2345,-1.8906,-0.0371,1.9808,1.8798,-2.4050
0.679914,-2.2692,-1.9430,-0.0255,1.9808,1.8798,-2.4050
0.680311,-2.2692,-1.9430,-0.0255,1.9808,1.8798,-2.4050
0.680553,-2.2692,-1.9430,-0.0255,1.9992,1.8505,-2.4441
0.680897,-2.3328,-1.9679,-0.0598,1.9992,1.8505,-2.4441
0.682418,-2.3328,-1.9679,-0.0598,1.9992,1.8505,-2.4441
0.682826,-2.3328,-1.9679,-0.0598,2.0151,1.8102,-2.4721
0.683477,-2.4101,-1.9665,-0.0913,2.0151,1.8102,-2.4721
0.685255,-2.4101,-1.9665,-0.0913,2.0151,1.8102,-2.4721
0.685675,-2.4101,-1.9665,-0.0913,2.0236,1.7699,-2.4929
0.686265,-2.5521,-1.8842,-0.1426,2.0236,1.7699,-2.4929
0.686812,-2.5521,-1.8842,-0.1426,2.0236,1.7699,-2.4929
0.687147,-2.5521,-1.8842,-0.1426,2.0298,1.7259,-2.5039
0.687609,-2.7234,-1.8210,-0.2391,2.0298,1.7259,-2.5039
0.689843,-2.7234,-1.8210,-0.2391,2.0298,1.7259,-2.5039
0.690292,-2.7234,-1.8210,-0.2391,2.0310,1.6831,-2.5039
0.690897,-2.8982,-1.7102,-0.3476,2.0310,1.6831,-2.5039
0.691490,-2.8982,-1.7102,-0.3476,2.0310,1.6831,-2.5039
0.691943,-2.8982,-1.7102,-0.3476,2.0273,1.6429,-2.4904
0.692542,-3.1468,-1.5778,-0.4878,2.0273,1.6429,-2.4904
0.697244,-3.1468,-1.5778,-0.4878,2.0273,1.6429,-2.4904
0.697847,-3.1468,-1.5778,-0.4878,2.0200,1.6049,-2.4661
0.698406,-3.3924,-1.4781,-0.6266,2.0200,1.6049,-2.4661
0.698975,-3.3924,-1.4781,-0.6266,2.0200,1.6049,-2.4661
0.699302,-3.3924,-1.4781,-0.6266,2.0090,1.5708,-2.4318
0.699814,-3.6426,-1.3284,-0.7541,2.0090,1.5708,-2.4318
0.700363,-3.6426,-1.3284,-0.7541,2.0090,1.5708,-2.4318
0.700695,-3.6426,-1.3284,-0.7541,1.9931,1.5403,-2.3903
0.701197,-3.7773,-1.1397,-0.8979,1.9931,1.5403,-2.3903
0.701792,-3.7773,-1.1397,-0.8979,1.9931,1.5403,-2.3903
0.702114,-3.7773,-1.1397,-0.8979,1.9748,1.5121,-2.3401
0.702573,-3.9064,-0.9559,-1.0650,1.9748,1.5121,-2.3401
0.704654,-3.9064,-0.9559,-1.0650,1.9748,1.5121,-2.3401
0.705011,-3.9064,-0.9559,-1.0650,1.9553,1.4986,-2.2888
0.705567,-4.0979,-0.8022,-1.2001,1.9553,1.4986,-2.2888
0.706074,-4.0979,-0.8022,-1.2001,1.9553,1.4986,-2.2888
0.706388,-4.0979,-0.8022,-1.2001,1.9370,1.4913,-2.2315
0.706862,-4.2404,-0.6087,-1.3132,1.9370,1.4913,-2.2315
0.708682,-4.2404,-0.6087,-1.3132,1.9370,1.4913,-2.2315
0.709033,-4.2404,-0.6087,-1.3132,1.9150,1.4901,-2.1740
0.709542,-4.3140,-0.4123,-1.4700,1.9150,1.4901,-2.1740
0.712592,-4.3140,-0.4123,-1.4700,1.9150,1.4901,-2.1740
0.713219,-4.3140,-0.4123,-1.4700,1.9002,1.5036,-2.1154
0.713858,-4.3634,-0.1263,-1.6712,1.9002,1.5036,-2.1154
0.714409,-4.3634,-0.1263,-1.6712,1.9002,1.5036,-2.1154
0.714736,-4.3634,-0.1263,-1.6712,1.8855,1.5341,-2.0604
0.715228,-4.3635,0.1636,-1.8215,1.8855,1.5341,-2.0604
0.715733,-4.3635,0.1636,-1.8215,1.8855,1.5341,-2.0604
0.716057,-4.3635,0.1636,-1.8215,1.8745,1.5708,-2.0067
0.716454,-4.3622,0.4141,-1.9827,1.8745,1.5708,-2.0067
0.719039,-4.3622,0.4141,-1.9827,1.8745,1.5708,-2.0067
0.719483,-4.3622,0.4141,-1.9827,1.8672,1.6074,-1.9565
0.720053,-4.3476,0.6943,-2.1401,1.8672,1.6074,-1.9565
0.720632,-4.3476,0.6943,-2.1401,1.8672,1.6074,-1.9565
0.720997,-4.3476,0.6943,-2.1401,1.8587,1.6501,-1.9077
0.721473,-4.3317,0.9594,-2.2514,1.8587,1.6501,-1.9077
0.723200,-4.3317,0.9594,-2.2514,1.8587,1.6501,-1.9077
0.723619,-4.3317,0.9594,-2.2514,1.8525,1.6954,-1.8637
0.724138,-4.3543,1.2152,-2.3276,1.8525,1.6954,-1.8637
0.724735,-4.3543,1.2152,-2.3276,1.8525,1.6954,-1.8637
0.725532,-4.3543,1.2152,-2.3276,1.8440,1.7394,-1.8197
0.726135,-4.3357,1.3800,-2.3489,1.8440,1.7394,-1.8197
0.730792,-4.3357,1.3800,-2.3489,1.8440,1.7394,-1.8197
0.731422,-4.3357,1.3800,-2.3489,1.8392,1.7759,-1.7746
0.732067,-4.3332,1.5068,-2.2966,1.8392,1.7759,-1.7746
0.732741,-4.3332,1.5068,-2.2966,1.8392,1.7759,-1.7746
0.733175,-4.3332,1.5068,-2.2966,1.8355,1.8089,-1.7256
0.733836,-4.3335,1.5787,-2.2878,1.8355,1.8089,-1.7256
0.734459,-4.3335,1.5787,-2.2878,1.8355,1.8089,-1.7256
0.734868,-4.3335,1.5787,-2.2878,1.8307,1.8382,-1.6793
0.735510,-4.3238,1.6486,-2.2614,1.8307,1.8382,-1.6793
0.736085,-4.3238,1.6486,-2.2614,1.8307,1.8382,-1.6793
0.736463,-4.3238,1.6486,-2.2614,1.8282,1.8567,-1.6316
0.736964,-4.3065,1.6207,-2.2228,1.8282,1.8567,-1.6316
0.737555,-4.3065,1.6207,-2.2228,1.8282,1.8567,-1.6316
0.737854,-4.3065,1.6207,-2.2228,1.8232,1.8677,-1.5790
0.738202,-4.3405,1.5381,-2.1454,1.8232,1.8677,-1.5790
0.740122,-4.3405,1.5381,-2.1454,1.8232,1.8677,-1.5790
0.740367,-4.3405,1.5381,-2.1454,1.8172,1.8677,-1.5290
0.740651,-4.3552,1.4799,-2.0831,1.8172,1.8677,-1.5290
0.741925,-4.3552,1.4799,-2.0831,1.8172,1.8677,-1.5290
0.742158,-4.3552,1.4799,-2.0831,1.8087,1.8590,-1.4752
0.742475,-4.3052,1.3721,-1.9632,1.8087,1.8590,-1.4752
0.745004,-4.3052,1.3721,-1.9632,1.8087,1.8590,-1.4752
0.745608,-4.3052,1.3721,-1.9632,1.8012,1.8359,-1.4215
0.746142,-4.3520,1.2286,-1.9017,1.8012,1.8359,-1.4215
0.746546,-4.3520,1.2286,-1.9017,1.8012,1.8359,-1.4215
0.746821,-4.3520,1.2286,-1.9017,1.7854,1.8065,-1.3652
0.747174,-4.3893,1.0895,-1.8838,1.7854,1.8065,-1.3652
0.752712,-4.3893,1.0895,-1.8838,1.7854,1.8065,-1.3652
0.753275,-4.3893,1.0895,-1.8838,1.7707,1.7772,-1.3067
0.754062,-4.4533,0.9849,-1.8833,1.7707,1.7772,-1.3067
0.754698,-4.4533,0.9849,-1.8833,1.7707,1.7772,-1.3067
0.755193,-4.4533,0.9849,-1.8833,1.7537,1.7467,-1.2455
0.755831,-4.4538,0.8944,-1.8762,1.7537,1.7467,-1.2455
0.756429,-4.4538,0.8944,-1.8762,1.7537,1.7467,-1.2455
0.756876,-4.4538,0.8944,-1.8762,1.7317,1.7149,-1.1832
0.757539,-4.4515,0.8122,-1.8475,1.7317,1.7149,-1.1832
0.758196,-4.4515,0.8122,-1.8475,1.7317,1.7149,-1.1832
0.758647,-4.4515,0.8122,-1.8475,1.7084,1.6769,-1.1184
0.759248,-4.4267,0.7271,-1.8190,1.7084,1.6769,-1.1184
0.759900,-4.4267,0.7271,-1.8190,1.7084,1.6769,-1.1184
0.760359,-4.4267,0.7271,-1.8190,1.6840,1.6319,-1.0537
0.760947,-4.3610,0.7061,-1.8150,1.6840,1.6319,-1.0537
0.761617,-4.3610,0.7061,-1.8150,1.6840,1.6319,-1.0537
0.762139,-4.3610,0.7061,-1.8150,1.6559,1.5830,-0.9914
0.762798,-4.2576,0.6723,-1.7872,1.6559,1.5830,-0.9914
0.763448,-4.2576,0.6723,-1.7872,1.6559,1.5830,-0.9914
0.763894,-4.2576,0.6723,-1.7872,1.6242,1.5305,-0.9279
0.764507,-4.1495,0.6324,-1.7597,1.6242,1.5305,-0.9279
0.765261,-4.1495,0.6324,-1.7597,1.6242,1.5305,-0.9279
0.765797,-4.1495,0.6324,-1.7597,1.5924,1.4706,-0.8680
0.766416,-4.0696,0.7186,-1.7925,1.5924,1.4706,-0.8680
0.776169,-4.0696,0.7186,-1.7925,1.5924,1.4706,-0.8680
0.777066,-4.0696,0.7186,-1.7925,1.5581,1.4120,-0.8093
0.777841,-4.0523,0.9846,-1.9254,1.5581,1.4120,-0.8093
0.778282,-4.0523,0.9846,-1.9254,1.5581,1.4120,-0.8093
0.778576,-4.0523,0.9846,-1.9254,1.5216,1.3655,-0.7446
0.779022,-3.9790,1.0805,-2.0009,1.5216,1.3655,-0.7446
0.779432,-3.9790,1.0805,-2.0009,1.5216,1.3655,-0.7446
0.779702,-3.9790,1.0805,-2.0009,1.4873,1.3215,-0.6860
0.780054,-3.8718,1.1053,-2.0074,1.4873,1.3215,-0.6860
0.780507,-3.8718,1.1053,-2.0074,1.4873,1.3215,-0.6860
0.780735,-3.8718,1.1053,-2.0074,1.4519,1.2775,-0.6335
0.781126,-3.7077,1.1112,-1.9798,1.4519,1.2775,-0.6335
0.781551,-3.7077,1.1112,-1.9798,1.4519,1.2775,-0.6335
0.781797,-3.7077,1.1112,-1.9798,1.4176,1.2275,-0.5845
0.782141,-3.4770,0.9975,-1.9262,1.4176,1.2275,-0.5845
0.782489,-3.4770,0.9975,-1.9262,1.4176,1.2275,-0.5845
0.782710,-3.4770,0.9975,-1.9262,1.3846,1.1725,-0.5442
0.783000,-3.2360,0.8226,-1.8096,1.3846,1.1725,-0.5442
0.783345,-3.2360,0.8226,-1.8096,1.3846,1.1725,-0.5442
0.783572,-3.2360,0.8226,-1.8096,1.3541,1.1162,-0.5077
0.783943,-2.9370,0.5875,-1.7114,1.3541,1.1162,-0.5077
0.784337,-2.9370,0.5875,-1.7114,1.3541,1.1162,-0.5077
0.784588,-2.9370,0.5875,-1.7114,1.3261,1.0539,-0.4795
0.784961,-2.5984,0.3445,-1.4979,1.3261,1.0539,-0.4795
0.789545,-2.5984,0.3445,-1.4979,1.3261,1.0539,-0.4795
0.790035,-2.5984,0.3445,-1.4979,1.3003,0.9881,-0.4587
0.790705,-2.3273,0.1388,-1.3352,1.3003,0.9881,-0.4587
0.791370,-2.3273,0.1388,-1.3352,1.3003,0.9881,-0.4587
0.791807,-2.3273,0.1388,-1.3352,1.2748,0.9147,-0.4429
0.792359,-2.0691,-0.1152,-1.1966,1.2748,0.9147,-0.4429
0.793085,-2.0691,-0.1152,-1.1966,1.2748,0.9147,-0.4429
0.793627,-2.0691,-0.1152,-1.1966,1.2515,0.8438,-0.4367
0.794061,-1.8189,-0.3197,-1.1218,1.2515,0.8438,-0.4367
0.794372,-1.8189,-0.3197,-1.1218,1.2515,0.8438,-0.4367
0.794589,-1.8189,-0.3197,-1.1218,1.2283,0.7828,-0.4331
0.794917,-1.6795,-0.5003,-1.2761,1.2283,0.7828,-0.4331
0.797517,-1.6795,-0.5003,-1.2761,1.2283,0.7828,-0.4331
0.798075,-1.6795,-0.5003,-1.2761,1.2002,0.7376,-0.4342
0.798769,-1.5116,-0.6290,-1.4955,1.2002,0.7376,-0.4342
0.799426,-1.5116,-0.6290,-1.4955,1.2002,0.7376,-0.4342
0.799845,-1.5116,-0.6290,-1.4955,1.1733,0.6985,-0.4379
0.800483,-1.3595,-0.7399,-1.3855,1.1733,0.6985,-0.4379
0.801260,-1.3595,-0.7399,-1.3855,1.1733,0.6985,-0.4379
0.801802,-1.3595,-0.7399,-1.3855,1.1452,0.6545,-0.4440
0.802363,-1.1390,-0.8011,-1.4520,1.1452,0.6545,-0.4440
0.802960,-1.1390,-0.8011,-1.4520,1.1452,0.6545,-0.4440
0.803357,-1.1390,-0.8011,-1.4520,1.1172,0.6068,-0.4527
0.804029,-0.9920,-0.8026,-1.4650,1.1172,0.6068,-0.4527
0.806520,-0.9920,-0.8026,-1.4650,1.1172,0.6068,-0.4527
0.806758,-0.9920,-0.8026,-1.4650,1.0854,0.5677,-0.4672
0.807133,-0.7956,-0.7520,-1.6031,1.0854,0.5677,-0.4672
0.808190,-0.7956,-0.7520,-1.6031,1.0854,0.5677,-0.4672
0.808419,-0.7956,-0.7520,-1.6031,1.0524,0.5323,-0.4857
0.808724,-0.6525,-0.6704,-1.5284,1.0524,0.5323,-0.4857
0.811839,-0.6525,-0.6704,-1.5284,1.0524,0.5323,-0.4857
0.812478,-0.6525,-0.6704,-1.5284,1.0230,0.4994,-0.5064
0.813191,-0.5847,-0.5505,-1.4845,1.0230,0.4994,-0.5064
0.813911,-0.5847,-0.5505,-1.4845,1.0230,0.4994,-0.5064
0.814183,-0.5847,-0.5505,-1.4845,0.9925,0.4737,-0.5272
0.814541,-0.5155,-0.4091,-1.4417,0.9925,0.4737,-0.5272
0.814906,-0.5155,-0.4091,-1.4417,0.9925,0.4737,-0.5272
0.815126,-0.5155,-0.4091,-1.4417,0.9632,0.4505,-0.5479
0.815443,-0.5268,-0.2464,-1.2866,0.9632,0.4505,-0.5479
0.817553,-0.5268,-0.2464,-1.2866,0.9632,0.4505,-0.5479
0.817918,-0.5268,-0.2464,-1.2866,0.9364,0.4309,-0.5650
0.818532,-0.5181,-0.0247,-1.1811,0.9364,0.4309,-0.5650
0.820430,-0.5181,-0.0247,-1.1811,0.9364,0.4309,-0.5650
0.820829,-0.5181,-0.0247,-1.1811,0.9131,0.4029,-0.5809
0.821475,-0.6323,0.1634,-0.9360,0.9131,0.4029,-0.5809
0.821973,-0.6323,0.1634,-0.9360,0.9131,0.4029,-0.5809
0.822212,-0.6323,0.1634,-0.9360,0.8960,0.3844,-0.5919
0.822530,-0.6837,0.3560,-0.8285,0.8960,0.3844,-0.5919
0.824496,-0.6837,0.3560,-0.8285,0.8960,0.3844,-0.5919
0.824808,-0.6837,0.3560,-0.8285,0.8826,0.3649,-0.5968
0.825579,-0.6545,0.4594,-0.7763,0.8826,0.3649,-0.5968
0.828071,-0.6545,0.4594,-0.7763,0.8826,0.3649,-0.5968
0.828630,-0.6545,0.4594,-0.7763,0.8740,0.3491,-0.5992
0.829487,-0.7541,0.5986,-0.6906,0.8740,0.3491,-0.5992
0.830011,-0.7541,0.5986,-0.6906,0.8740,0.3491,-0.5992
0.830229,-0.7541,0.5986,-0.6906,0.8729,0.3197,-0.5968
0.830510,-0.8515,0.6767,-0.4660,0.8729,0.3197,-0.5968
0.831655,-0.8515,0.6767,-0.4660,0.8729,0.3197,-0.5968
0.831893,-0.8515,0.6767,-0.4660,0.8729,0.2904,-0.5907
0.832236,-0.9046,0.7789,-0.4432,0.8729,0.2904,-0.5907
0.834299,-0.9046,0.7789,-0.4432,0.8729,0.2904,-0.5907
0.834786,-0.9046,0.7789,-0.4432,0.8777,0.2586,-0.5845
0.835453,-1.0676,0.8281,-0.3618,0.8777,0.2586,-0.5845
0.837062,-1.0676,0.8281,-0.3618,0.8777,0.2586,-0.5845
0.837379,-1.0676,0.8281,-0.3618,0.8801,0.2379,-0.5735
0.837904,-1.1271,0.8416,-0.3600,0.8801,0.2379,-0.5735
0.838973,-1.1271,0.8416,-0.3600,0.8801,0.2379,-0.5735
0.839300,-1.1271,0.8416,-0.3600,0.8849,0.2196,-0.5625
0.839774,-1.1857,0.8788,-0.3302,0.8849,0.2196,-0.5625
0.841374,-1.1857,0.8788,-0.3302,0.8849,0.2196,-0.5625
0.841871,-1.1857,0.8788,-0.3302,0.8911,0.2196,-0.5503
0.842368,-1.1704,0.8522,-0.3502,0.8911,0.2196,-0.5503
0.845595,-1.1704,0.8522,-0.3502,0.8911,0.2196,-0.5503
0.846446,-1.1704,0.8522,-0.3502,0.9034,0.2148,-0.5369
0.846929,-1.2912,0.8399,-0.0864,0.9034,0.2148,-0.5369
0.847471,-1.2912,0.8399,-0.0864,0.9034,0.2148,-0.5369
0.847820,-1.2912,0.8399,-0.0864,0.9156,0.2074,-0.5247
0.848293,-1.2198,0.8092,-0.1246,0.9156,0.2074,-0.5247
0.848749,-1.2198,0.8092,-0.1246,0.9156,0.2074,-0.5247
0.849090,-1.2198,0.8092,-0.1246,0.9302,0.2208,-0.5125
0.849605,-1.2553,0.7502,-0.0056,0.9302,0.2208,-0.5125
0.851836,-1.2553,0.7502,-0.0056,0.9302,0.2208,-0.5125
0.852293,-1.2553,0.7502,-0.0056,0.9474,0.2245,-0.4990
0.852910,-1.2074,0.7408,-0.0058,0.9474,0.2245,-0.4990
0.853550,-1.2074,0.7408,-0.0058,0.9474,0.2245,-0.4990
0.853928,-1.2074,0.7408,-0.0058,0.9657,0.2403,-0.4807
0.854498,-1.2825,0.7978,0.1150,0.9657,0.2403,-0.4807
0.856269,-1.2825,0.7978,0.1150,0.9657,0.2403,-0.4807
0.856643,-1.2825,0.7978,0.1150,0.9840,0.2623,-0.4636
0.857226,-1.2474,0.8617,0.0969,0.9840,0.2623,-0.4636
0.857860,-1.2474,0.8617,0.0969,0.9840,0.2623,-0.4636
0.858242,-1.2474,0.8617,0.0969,1.0022,0.2989,-0.4392
0.858831,-1.2438,0.9113,-0.0119,1.0022,0.2989,-0.4392
0.863475,-1.2438,0.9113,-0.0119,1.0022,0.2989,-0.4392
0.864141,-1.2438,0.9113,-0.0119,1.0182,0.3417,-0.4159
0.864848,-1.2661,0.9774,-0.2135,1.0182,0.3417,-0.4159
0.865595,-1.2661,0.9774,-0.2135,1.0182,0.3417,-0.4159
0.866006,-1.2661,0.9774,-0.2135,1.0329,0.3821,-0.3915
0.866563,-1.2593,0.9985,-0.2442,1.0329,0.3821,-0.3915
0.867240,-1.2593,0.9985,-0.2442,1.0329,0.3821,-0.3915
0.867636,-1.2593,0.9985,-0.2442,1.0439,0.4284,-0.3634
0.868194,-1.1809,1.0108,-0.3657,1.0439,0.4284,-0.3634
0.868813,-1.1809,1.0108,-0.3657,1.0439,0.4284,-0.3634
0.869212,-1.1809,1.0108,-0.3657,1.0548,0.4627,-0.3426
0.869832,-1.2084,0.9828,-0.3176,1.0548,0.4627,-0.3426
0.870244,-1.2084,0.9828,-0.3176,1.0548,0.4627,-0.3426
0.870502,-1.2084,0.9828,-0.3176,1.0682,0.4920,-0.3194
0.870851,-1.3063,0.9728,-0.1708,1.0682,0.4920,-0.3194
0.877535,-1.3063,0.9728,-0.1708,1.0682,0.4920,-0.3194
0.878016,-1.3063,0.9728,-0.1708,1.0890,0.5067,-0.2938
0.878628,-1.3145,0.9765,-0.0015,1.0890,0.5067,-0.2938
0.879233,-1.3145,0.9765,-0.0015,1.0890,0.5067,-0.2938
0.879654,-1.3145,0.9765,-0.0015,1.1110,0.5152,-0.2681
0.880203,-1.1845,0.9208,0.0959,1.1110,0.5152,-0.2681
0.880760,-1.1845,0.9208,0.0959,1.1110,0.5152,-0.2681
0.881189,-1.1845,0.9208,0.0959,1.1342,0.5225,-0.2449
0.881806,-0.9566,0.8962,0.2312,1.1342,0.5225,-0.2449
0.882386,-0.9566,0.8962,0.2312,1.1342,0.5225,-0.2449
0.882823,-0.9566,0.8962,0.2312,1.1587,0.5225,-0.2266
0.883422,-0.7937,0.8761,0.1999,1.1587,0.5225,-0.2266
0.884039,-0.7937,0.8761,0.1999,1.1587,0.5225,-0.2266
0.884429,-0.7937,0.8761,0.1999,1.1807,0.5140,-0.2119
0.884999,-0.8386,0.9031,0.4142,1.1807,0.5140,-0.2119
0.885785,-0.8386,0.9031,0.4142,1.1807,0.5140,-0.2119
0.886186,-0.8386,0.9031,0.4142,1.1965,0.5140,-0.1986
0.886662,-0.5488,0.9506,0.1956,1.1965,0.5140,-0.1986
0.887250,-0.5488,0.9506,0.1956,1.1965,0.5140,-0.1986
0.887657,-0.5488,0.9506,0.1956,1.2112,0.5030,-0.1863
0.888204,-0.5054,0.9118,0.2704,1.2112,0.5030,-0.1863
0.888721,-0.5054,0.9118,0.2704,1.2112,0.5030,-0.1863
0.889106,-0.5054,0.9118,0.2704,1.2235,0.4847,-0.1778
0.889640,-0.4894,0.9334,0.2799,1.2235,0.4847,-0.1778
0.891873,-0.4894,0.9334,0.2799,1.2235,0.4847,-0.1778
0.892778,-0.4894,0.9334,0.2799,1.2332,0.4639,-0.1679
0.893747,-0.4002,0.9274,0.3436,1.2332,0.4639,-0.1679
0.894312,-0.4002,0.9274,0.3436,1.2332,0.4639,-0.1679
0.894668,-0.4002,0.9274,0.3436,1.2442,0.4394,-0.1606
0.895096,-0.4026,0.9472,0.4600,1.2442,0.4394,-0.1606
0.900495,-0.4026,0.9472,0.4600,1.2442,0.4394,-0.1606
0.900829,-0.4026,0.9472,0.4600,1.2528,0.4126,-0.1558
0.901278,-0.2810,0.9732,0.4977,1.2528,0.4126,-0.1558
0.901751,-0.2810,0.9732,0.4977,1.2528,0.4126,-0.1558
0.902055,-0.2810,0.9732,0.4977,1.2673,0.3711,-0.1508
0.902443,-0.2833,0.9975,0.7035,1.2673,0.3711,-0.1508
0.902867,-0.2833,0.9975,0.7035,1.2673,0.3711,-0.1508
0.903105,-0.2833,0.9975,0.7035,1.2772,0.3234,-0.1484
0.903461,-0.0848,1.0373,0.5650,1.2772,0.3234,-0.1484
0.903778,-0.0848,1.0373,0.5650,1.2772,0.3234,-0.1484
0.904013,-0.0848,1.0373,0.5650,1.2796,0.2782,-0.1521
0.904344,0.1491,1.0762,-0.0819,1.2796,0.2782,-0.1521
0.904663,0.1491,1.0762,-0.0819,1.2796,0.2782,-0.1521
0.904886,0.1491,1.0762,-0.0819,1.2600,0.2648,-0.1581
0.905178,0.2240,1.1133,-0.9893,1.2600,0.2648,-0.1581
0.908268,0.2240,1.1133,-0.9893,1.2600,0.2648,-0.1581
0.908622,0.2240,1.1133,-0.9893,1.2283,0.2574,-0.1594
0.908967,-0.1548,1.0513,-0.8325,1.2283,0.2574,-0.1594
0.909702,-0.1548,1.0513,-0.8325,1.2283,0.2574,-0.1594
0.909983,-0.1548,1.0513,-0.8325,1.1978,0.2294,-0.1558
0.910327,-0.1509,1.0343,-0.7319,1.1978,0.2294,-0.1558
0.913844,-0.1509,1.0343,-0.7319,1.1978,0.2294,-0.1558
0.914784,-0.1509,1.0343,-0.7319,1.1709,0.2012,-0.1508
0.915460,0.1518,1.0607,-1.1624,1.1709,0.2012,-0.1508
0.916090,0.1518,1.0607,-1.1624,1.1709,0.2012,-0.1508
0.916711,0.1518,1.0607,-1.1624,1.1415,0.1914,-0.1508
0.917731,0.1765,1.1264,-1.1786,1.1415,0.1914,-0.1508
0.918805,0.1765,1.1264,-1.1786,1.1415,0.1914,-0.1508
0.919466,0.1765,1.1264,-1.1786,1.1135,0.1743,-0.1484
0.920063,-0.1040,1.2997,-0.7684,1.1135,0.1743,-0.1484
0.920818,-0.1040,1.2997,-0.7684,1.1135,0.1743,-0.1484
0.921278,-0.1040,1.2997,-0.7684,1.0964,0.1341,-0.1386
0.921897,-0.3461,1.3458,-0.3744,1.0964,0.1341,-0.1386
0.922251,-0.3461,1.3458,-0.3744,1.0964,0.1341,-0.1386
0.922503,-0.3461,1.3458,-0.3744,1.0780,0.1011,-0.1313
0.922866,0.3848,1.3745,-1.0034,1.0780,0.1011,-0.1313
0.925174,0.3848,1.3745,-1.0034,1.0780,0.1011,-0.1313
0.925487,0.3848,1.3745,-1.0034,1.0548,0.0925,-0.1386
0.925857,0.4345,1.3714,-0.9412,1.0548,0.0925,-0.1386
0.926235,0.4345,1.3714,-0.9412,1.0548,0.0925,-0.1386
0.926464,0.4345,1.3714,-0.9412,1.0377,0.0668,-0.1448
0.926777,0.1974,1.3077,-0.3623,1.0377,0.0668,-0.1448
0.929080,0.1974,1.3077,-0.3623,1.0377,0.0668,-0.1448
0.929518,0.1974,1.3077,-0.3623,1.0352,0.0070,-0.1484
0.930090,0.1868,1.2606,0.4506,1.0352,0.0070,-0.1484
0.932650,0.1868,1.2606,0.4506,1.0352,0.0070,-0.1484
0.933172,0.1868,1.2606,0.4506,1.0500,-0.1005,-0.1558
0.933821,0.1304,1.2408,1.1238,1.0500,-0.1005,-0.1558
0.934154,0.1304,1.2408,1.1238,1.0500,-0.1005,-0.1558
0.934376,0.1304,1.2408,1.1238,1.0682,-0.2020,-0.1680
0.934676,0.6563,1.4124,0.3180,1.0682,-0.2020,-0.1680
0.936194,0.6563,1.4124,0.3180,1.0682,-0.2020,-0.1680
0.936427,0.6563,1.4124,0.3180,1.0670,-0.2423,-0.1936
0.936746,1.2029,1.4207,-0.5897,1.0670,-0.2423,-0.1936
0.938395,1.2029,1.4207,-0.5897,1.0670,-0.2423,-0.1936
0.938629,1.2029,1.4207,-0.5897,1.0500,-0.2508,-0.2241
0.938934,0.6435,1.2897,-0.0263,1.0500,-0.2508,-0.2241
0.940919,0.6435,1.2897,-0.0263,1.0500,-0.2508,-0.2241
0.941372,0.6435,1.2897,-0.0263,1.0365,-0.2911,-0.2426
0.941973,0.9155,1.3946,-0.4994,1.0365,-0.2911,-0.2426
0.944087,0.9155,1.3946,-0.4994,1.0365,-0.2911,-0.2426
0.944389,0.9155,1.3946,-0.4994,1.0011,-0.2788,-0.2694
0.944737,1.0349,1.1917,-1.4385,1.0011,-0.2788,-0.2694
0.945116,1.0349,1.1917,-1.4385,1.0011,-0.2788,-0.2694
0.945372,1.0349,1.1917,-1.4385,0.9999,-0.3424,-0.2864
0.945767,0.0601,0.8061,2.5689,0.9999,-0.3424,-0.2864
0.948239,0.0601,0.8061,2.5689,0.9999,-0.3424,-0.2864
0.948504,0.0601,0.8061,2.5689,1.0292,-0.4536,-0.2901
0.948894,0.3795,1.0520,1.7670,1.0292,-0.4536,-0.2901
0.950534,0.3795,1.0520,1.7670,1.0292,-0.4536,-0.2901
0.951011,0.3795,1.0520,1.7670,1.0707,-0.5233,-0.3011
0.951720,0.5142,1.1280,2.1758,1.0707,-0.5233,-0.3011
0.953186,0.5142,1.1280,2.1758,1.0707,-0.5233,-0.3011
0.953539,0.5142,1.1280,2.1758,1.1074,-0.5759,-0.3182
0.954048,0.8397,1.1675,2.1000,1.1074,-0.5759,-0.3182
0.955236,0.8397,1.1675,2.1000,1.1074,-0.5759,-0.3182
0.955548,0.8397,1.1675,2.1000,1.1403,-0.6112,-0.3391
0.956040,1.0691,1.2021,1.5291,1.1403,-0.6112,-0.3391
0.957575,1.0691,1.2021,1.5291,1.1403,-0.6112,-0.3391
0.957955,1.0691,1.2021,1.5291,1.1600,-0.6198,-0.3634
0.958452,1.1375,1.2387,1.2001,1.1600,-0.6198,-0.3634
0.961701,1.1375,1.2387,1.2001,1.1600,-0.6198,-0.3634
0.962202,1.1375,1.2387,1.2001,1.1733,-0.6296,-0.3866
0.962707,1.2412,1.1546,1.2278,1.1733,-0.6296,-0.3866
0.963277,1.2412,1.1546,1.2278,1.1733,-0.6296,-0.3866
0.964007,1.2412,1.1546,1.2278,1.1831,-0.6539,-0.4099
0.964498,1.4247,1.1299,1.4052,1.1831,-0.6539,-0.4099
0.964997,1.4247,1.1299,1.4052,1.1831,-0.6539,-0.4099
0.965317,1.4247,1.1299,1.4052,1.1978,-0.6821,-0.4367
0.965757,1.3780,1.1754,1.3335,1.1978,-0.6821,-0.4367
0.967882,1.3780,1.1754,1.3335,1.1978,-0.6821,-0.4367
0.968281,1.3780,1.1754,1.3335,1.2112,-0.6992,-0.4587
0.968613,1.1981,1.2478,1.0842,1.2112,-0.6992,-0.4587
0.969127,1.1981,1.2478,1.0842,1.2112,-0.6992,-0.4587
0.969690,1.1981,1.2478,1.0842,1.2173,-0.7102,-0.4722
0.970238,1.0484,1.1945,0.6978,1.2173,-0.7102,-0.4722
0.971788,1.0484,1.1945,0.6978,1.2173,-0.7102,-0.4722
0.972166,1.0484,1.1945,0.6978,1.2161,-0.7029,-0.4759
0.972677,0.9810,1.2435,0.1283,1.2161,-0.7029,-0.4759
0.973935,0.9810,1.2435,0.1283,1.2161,-0.7029,-0.4759
0.974182,0.9810,1.2435,0.1283,1.2063,-0.6711,-0.4734
0.974534,0.8182,1.2383,0.0245,1.2063,-0.6711,-0.4734
0.977695,0.8182,1.2383,0.0245,1.2063,-0.6711,-0.4734
0.978259,0.8182,1.2383,0.0245,1.1953,-0.6295,-0.4649
0.978924,0.9386,1.2961,-0.0521,1.1953,-0.6295,-0.4649
0.979500,0.9386,1.2961,-0.0521,1.1953,-0.6295,-0.4649
0.979896,0.9386,1.2961,-0.0521,1.1843,-0.5782,-0.4539
0.980484,1.0356,1.3869,-0.2613,1.1843,-0.5782,-0.4539
0.981087,1.0356,1.3869,-0.2613,1.1843,-0.5782,-0.4539
0.981539,1.0356,1.3869,-0.2613,1.1758,-0.5221,-0.4465
0.982209,1.0921,1.4356,-0.4282,1.1758,-0.5221,-0.4465
0.988595,1.0921,1.4356,-0.4282,1.1758,-0.5221,-0.4465
0.989061,1.0921,1.4356,-0.4282,1.1697,-0.4793,-0.4355
0.989785,1.2020,1.6031,-0.4274,1.1697,-0.4793,-0.4355
0.990394,1.2020,1.6031,-0.4274,1.1697,-0.4793,-0.4355
0.990775,1.2020,1.6031,-0.4274,1.1635,-0.4476,-0.4282
0.991295,1.3662,1.6604,-0.1932,1.1635,-0.4476,-0.4282
0.991928,1.3662,1.6604,-0.1932,1.1635,-0.4476,-0.4282
0.992339,1.3662,1.6604,-0.1932,1.1672,-0.4267,-0.4306
0.992891,1.6413,1.6960,-0.1828,1.1672,-0.4267,-0.4306
0.993533,1.6413,1.6960,-0.1828,1.1672,-0.4267,-0.4306
0.993940,1.6413,1.6960,-0.1828,1.1745,-0.4071,-0.4392
0.994471,1.6535,1.7863,-0.0032,1.1745,-0.4071,-0.4392
0.995031,1.6535,1.7863,-0.0032,1.1745,-0.4071,-0.4392
0.995440,1.6535,1.7863,-0.0032,1.1868,-0.3851,-0.4465
0.995980,1.7228,1.8576,-0.0134,1.1868,-0.3851,-0.4465
0.996560,1.7228,1.8576,-0.0134,1.1868,-0.3851,-0.4465
0.996988,1.7228,1.8576,-0.0134,1.1978,-0.3521,-0.4612
0.997383,2.0219,1.8362,-0.2260,1.1978,-0.3521,-0.4612
0.998046,2.0219,1.8362,-0.2260,1.1978,-0.3521,-0.4612
0.998430,2.0219,1.8362,-0.2260,1.2088,-0.3094,-0.4832
0.999028,1.9301,1.9279,-0.1242,1.2088,-0.3094,-0.4832
1.006057,1.9301,1.9279,-0.1242,1.2088,-0.3094,-0.4832
1.006689,2.0601,2.0617,-0.4006,1.2088,-0.3094,-0.4832
1.007453,2.0601,2.0617,-0.4006,1.2161,-0.2728,-0.5027
1.008264,2.0601,2.0617,-0.4006,1.2161,-0.2728,-0.5027
1.008690,2.0601,2.0617,-0.4006,1.2173,-0.2288,-0.5235
1.009280,2.0288,2.1701,-0.7741,1.2173,-0.2288,-0.5235
1.009962,2.0288,2.1701,-0.7741,1.2173,-0.2288,-0.5235
1.010205,2.0288,2.1701,-0.7741,1.2125,-0.1848,-0.5430
1.010527,1.8463,2.2506,-0.8837,1.2125,-0.1848,-0.5430
1.010915,1.8463,2.2506,-0.8837,1.2125,-0.1848,-0.5430
1.011172,1.8463,2.2506,-0.8837,1.2015,-0.1493,-0.5600
1.011508,1.8062,2.5263,-1.4583,1.2015,-0.1493,-0.5600
1.011874,1.8062,2.5263,-1.4583,1.2015,-0.1493,-0.5600
1.012117,1.8062,2.5263,-1.4583,1.1770,-0.1078,-0.5723
1.012433,1.7492,2.6604,-1.9889,1.1770,-0.1078,-0.5723
1.012802,1.7492,2.6604,-1.9889,1.1770,-0.1078,-0.5723
1.013041,1.7492,2.6604,-1.9889,1.1403,-0.0615,-0.5870
1.013388,1.8603,2.8201,-2.5499,1.1403,-0.0615,-0.5870
1.017618,1.8603,2.8201,-2.5499,1.1403,-0.0615,-0.5870
1.017981,1.8603,2.8201,-2.5499,1.0890,-0.0065,-0.6017
1.018355,2.1747,3.0985,-3.3243,1.0890,-0.0065,-0.6017
1.018731,2.1747,3.0985,-3.3243,1.0890,-0.0065,-0.6017
1.018967,2.1747,3.0985,-3.3243,1.0304,0.0571,-0.6175
1.019319,2.1614,3.2187,-3.4390,1.0304,0.0571,-0.6175
1.019648,2.1614,3.2187,-3.4390,1.0304,0.0571,-0.6175
1.019895,2.1614,3.2187,-3.4390,0.9754,0.0938,-0.6273
1.020244,2.0503,3.2133,-2.9312,0.9754,0.0938,-0.6273
1.021681,2.0503,3.2133,-2.9312,0.9754,0.0938,-0.6273
1.022004,2.0503,3.2133,-2.9312,0.9290,0.1170,-0.6346
1.022459,2.1762,3.3784,-3.0115,0.9290,0.1170,-0.6346
1.023943,2.1762,3.3784,-3.0115,0.9290,0.1170,-0.6346
1.024269,2.1762,3.3784,-3.0115,0.8849,0.1451,-0.6420
1.024691,2.3033,3.4719,-3.1347,0.8849,0.1451,-0.6420
1.027731,2.3033,3.4719,-3.1347,0.8849,0.1451,-0.6420
1.028362,2.3033,3.4719,-3.1347,0.8434,0.1731,-0.6493
1.029034,2.3505,3.5090,-3.2090,0.8434,0.1731,-0.6493
1.029763,2.3505,3.5090,-3.2090,0.8434,0.1731,-0.6493
1.030108,2.3505,3.5090,-3.2090,0.8031,0.2013,-0.6566
1.030547,2.4339,3.5595,-3.2570,0.8031,0.2013,-0.6566
1.030983,2.4339,3.5595,-3.2570,0.8031,0.2013,-0.6566
1.031266,2.4339,3.5595,-3.2570,0.7604,0.2256,-0.6640
1.031686,2.5262,3.5375,-3.3533,0.7604,0.2256,-0.6640
1.034017,2.5262,3.5375,-3.3533,0.7604,0.2256,-0.6640
1.034396,2.5262,3.5375,-3.3533,0.7128,0.2574,-0.6762
1.034861,2.6717,3.4871,-3.5893,0.7128,0.2574,-0.6762
1.035361,2.6717,3.4871,-3.5893,0.7128,0.2574,-0.6762
1.035695,2.6717,3.4871,-3.5893,0.6639,0.2929,-0.6883
1.036167,2.8424,3.4804,-3.7670,0.6639,0.2929,-0.6883
1.037939,2.8424,3.4804,-3.7670,0.6639,0.2929,-0.6883
1.038179,2.8424,3.4804,-3.7670,0.6065,0.3296,-0.7043
1.038490,2.8711,3.4413,-3.7634,0.6065,0.3296,-0.7043
1.040360,2.8711,3.4413,-3.7634,0.6065,0.3296,-0.7043
1.040598,2.8711,3.4413,-3.7634,0.5490,0.3576,-0.7153
1.041196,2.9708,3.4141,-3.7115,0.5490,0.3576,-0.7153
1.044664,2.9708,3.4141,-3.7115,0.5490,0.3576,-0.7153
1.045321,2.9708,3.4141,-3.7115,0.4905,0.3809,-0.7275
1.046012,2.9906,3.4504,-3.6765,0.4905,0.3809,-0.7275
1.046359,2.9906,3.4504,-3.6765,0.4905,0.3809,-0.7275
1.046592,2.9906,3.4504,-3.6765,0.4317,0.4041,-0.7397
1.046918,2.8825,3.4584,-3.5352,0.4317,0.4041,-0.7397
1.047248,2.8825,3.4584,-3.5352,0.4317,0.4041,-0.7397
1.047499,2.8825,3.4584,-3.5352,0.3817,0.4224,-0.7470
1.047818,2.7864,3.3901,-3.1939,0.3817,0.4224,-0.7470
1.051964,2.7864,3.3901,-3.1939,0.3817,0.4224,-0.7470
1.052704,2.7864,3.3901,-3.1939,0.3377,0.4272,-0.7531
1.053589,2.7582,3.2671,-2.6579,0.3377,0.4272,-0.7531
1.054355,2.7582,3.2671,-2.6579,0.3377,0.4272,-0.7531
1.054836,2.7582,3.2671,-2.6579,0.3059,0.4199,-0.7580
1.055503,2.8037,3.1595,-2.1957,0.3059,0.4199,-0.7580
1.056218,2.8037,3.1595,-2.1957,0.3059,0.4199,-0.7580
1.056727,2.8037,3.1595,-2.1957,0.2779,0.4065,-0.7678
1.057382,2.9680,2.9372,-1.8944,0.2779,0.4065,-0.7678
1.058143,2.9680,2.9372,-1.8944,0.2779,0.4065,-0.7678
1.058632,2.9680,2.9372,-1.8944,0.2559,0.3919,-0.7837
1.059218,3.0458,2.7364,-1.6891,0.2559,0.3919,-0.7837
1.059861,3.0458,2.7364,-1.6891,0.2559,0.3919,-0.7837
1.060361,3.0458,2.7364,-1.6891,0.2326,0.3844,-0.8056
1.060986,3.1662,2.4503,-1.5995,0.2326,0.3844,-0.8056
1.061686,3.1662,2.4503,-1.5995,0.2326,0.3844,-0.8056
1.062158,3.1662,2.4503,-1.5995,0.2082,0.3809,-0.8338
1.062698,3.2721,2.2008,-1.5376,0.2082,0.3809,-0.8338
1.072511,3.2721,2.2008,-1.5376,0.2082,0.3809,-0.8338
1.073143,3.2721,2.2008,-1.5376,0.1825,0.3809,-0.8668
1.073881,3.2823,1.9933,-1.4234,0.1825,0.3809,-0.8668
1.074595,3.2823,1.9933,-1.4234,0.1825,0.3809,-0.8668
1.075068,3.2823,1.9933,-1.4234,0.1557,0.3821,-0.9034
1.075706,3.1912,1.9172,-1.3657,0.1557,0.3821,-0.9034
1.076417,3.1292,1.9123,-1.3968,0.1557,0.3821,-0.9034
1.077019,3.1292,1.9123,-1.3968,0.1557,0.3821,-0.9034
1.077463,3.1292,1.9123,-1.3968,0.1276,0.3882,-0.9376
1.077939,3.1292,1.9123,-1.3968,0.1276,0.3882,-0.9376
1.078249,3.1292,1.9123,-1.3968,0.0946,0.4016,-0.9681
1.078683,3.0391,2.0349,-1.6939,0.0946,0.4016,-0.9681
1.079112,3.0391,2.0349,-1.6939,0.0946,0.4016,-0.9681
1.079396,3.0391,2.0349,-1.6939,0.0531,0.4284,-0.9974
1.079739,3.0038,2.0763,-2.0299,0.0531,0.4284,-0.9974
1.080168,3.0038,2.0763,-2.0299,0.0531,0.4284,-0.9974
1.080451,3.0038,2.0763,-2.0299,0.0041,0.4639,-1.0244
1.080765,2.8086,2.1555,-2.1685,0.0041,0.4639,-1.0244
1.081135,2.8086,2.1555,-2.1685,0.0041,0.4639,-1.0244
1.081392,2.8086,2.1555,-2.1685,-0.0472,0.4982,-1.0414
1.081814,2.5023,2.1503,-2.2199,-0.0472,0.4982,-1.0414
1.082214,2.5023,2.1503,-2.2199,-0.0472,0.4982,-1.0414
1.082747,2.5023,2.1503,-2.2199,-0.0972,0.5287,-1.0524
1.083138,2.2521,2.0747,-2.2729,-0.0972,0.5287,-1.0524
1.083510,2.2521,2.0747,-2.2729,-0.0972,0.5287,-1.0524
1.083745,2.2521,2.0747,-2.2729,-0.1485,0.5580,-1.0610
1.084058,2.1759,2.0088,-2.3067,-0.1485,0.5580,-1.0610
1.090322,2.1759,2.0088,-2.3067,-0.1485,0.5580,-1.0610
1.090923,2.1759,2.0088,-2.3067,-0.1987,0.5910,-1.0659
1.091670,1.9021,1.9433,-2.3750,-0.1987,0.5910,-1.0659
1.092298,1.9021,1.9433,-2.3750,-0.1987,0.5910,-1.0659
1.092723,1.9021,1.9433,-2.3750,-0.2524,0.6313,-1.0671
1.093326,1.7255,1.8713,-2.3829,-0.2524,0.6313,-1.0671
1.094022,1.7255,1.8713,-2.3829,-0.2524,0.6313,-1.0671
1.094253,1.7255,1.8713,-2.3829,-0.3025,0.6777,-1.0671
1.094539,1.7084,1.7906,-2.2642,-0.3025,0.6777,-1.0671
1.094859,1.7084,1.7906,-2.2642,-0.3025,0.6777,-1.0671
1.095088,1.7084,1.7906,-2.2642,-0.3465,0.7290,-1.0696
1.095413,1.6025,1.7313,-1.9811,-0.3465,0.7290,-1.0696
1.095758,1.6025,1.7313,-1.9811,-0.3465,0.7290,-1.0696
1.095975,1.6025,1.7313,-1.9811,-0.3818,0.7755,-1.0709
1.096299,1.5048,1.7173,-1.7499,-0.3818,0.7755,-1.0709
1.097782,1.5048,1.7173,-1.7499,-0.3818,0.7755,-1.0709
1.098027,1.5048,1.7173,-1.7499,-0.4088,0.8218,-1.0719
1.098370,1.4235,1.5575,-1.2757,-0.4088,0.8218,-1.0719
1.100828,1.4235,1.5575,-1.2757,-0.4088,0.8218,-1.0719
1.101473,1.4235,1.5575,-1.2757,-0.4246,0.8658,-1.0732
1.101999,1.3044,1.4555,-0.9618,-0.4246,0.8658,-1.0732
1.102350,1.3044,1.4555,-0.9618,-0.4246,0.8658,-1.0732
1.102580,1.3044,1.4555,-0.9618,-0.4333,0.9159,-1.0757
1.102876,1.2424,1.4017,-0.7800,-0.4333,0.9159,-1.0757
1.106866,1.2424,1.4017,-0.7800,-0.4333,0.9159,-1.0757
1.107191,1.2424,1.4017,-0.7800,-0.4381,0.9696,-1.0769
1.107655,1.3178,1.3740,-0.7375,-0.4381,0.9696,-1.0769
1.108096,1.3178,1.3740,-0.7375,-0.4381,0.9696,-1.0769
1.108378,1.3178,1.3740,-0.7375,-0.4418,1.0332,-1.0819
1.108757,1.3575,1.4592,-0.7171,-0.4418,1.0332,-1.0819
1.109233,1.3575,1.4592,-0.7171,-0.4418,1.0332,-1.0819
1.109569,1.3575,1.4592,-0.7171,-0.4418,1.0979,-1.0819
1.109909,1.2607,1.4293,-0.4738,-0.4418,1.0979,-1.0819
1.112988,1.2607,1.4293,-0.4738,-0.4418,1.0979,-1.0819
1.113541,1.2607,1.4293,-0.4738,-0.4368,1.1579,-1.0829
1.114031,1.0162,1.3310,-0.1753,-0.4368,1.1579,-1.0829
1.114440,1.0162,1.3310,-0.1753,-0.4368,1.1579,-1.0829
1.114726,1.0162,1.3310,-0.1753,-0.4308,1.2152,-1.0819
1.115118,0.8633,1.3075,-0.1270,-0.4308,1.2152,-1.0819
1.115568,0.8633,1.3075,-0.1270,-0.4308,1.2152,-1.0819
1.115838,0.8633,1.3075,-0.1270,-0.4198,1.2715,-1.0781
1.116228,0.7899,1.3385,-0.1041,-0.4198,1.2715,-1.0781
1.118537,0.7899,1.3385,-0.1041,-0.4198,1.2715,-1.0781
1.118858,0.7899,1.3385,-0.1041,-0.4088,1.3252,-1.0744
1.119288,0.7718,1.3094,-0.0447,-0.4088,1.3252,-1.0744
1.120898,0.7718,1.3094,-0.0447,-0.4088,1.3252,-1.0744
1.121155,0.7718,1.3094,-0.0447,-0.4003,1.3765,-1.0769
1.121504,0.9507,1.2925,-0.1674,-0.4003,1.3765,-1.0769
1.123000,0.9507,1.2925,-0.1674,-0.4003,1.3765,-1.0769
1.123222,0.9507,1.2925,-0.1674,-0.3928,1.4290,-1.0842
1.123556,0.8609,1.2715,-0.0806,-0.3928,1.4290,-1.0842
1.126116,0.8609,1.2715,-0.0806,-0.3928,1.4290,-1.0842
1.126704,0.8609,1.2715,-0.0806,-0.3818,1.4792,-1.0927
1.127400,0.8214,1.2825,-0.1918,-0.3818,1.4792,-1.0927
1.128120,0.8214,1.2825,-0.1918,-0.3818,1.4792,-1.0927
1.128571,0.8214,1.2825,-0.1918,-0.3733,1.5330,-1.1012
1.129147,0.8879,1.3187,-0.3262,-0.3733,1.5330,-1.1012
1.129784,0.8879,1.3187,-0.3262,-0.3733,1.5330,-1.1012
1.130008,0.8879,1.3187,-0.3262,-0.3673,1.5757,-1.1135
1.130301,0.5927,1.2014,-0.0845,-0.3673,1.5757,-1.1135
1.132820,0.5927,1.2014,-0.0845,-0.3673,1.5757,-1.1135
1.133193,0.5927,1.2014,-0.0845,-0.3623,1.6111,-1.1232
1.133771,0.4808,1.2411,-0.1940,-0.3623,1.6111,-1.1232
1.135534,0.4808,1.2411,-0.1940,-0.3623,1.6111,-1.1232
1.136027,0.4808,1.2411,-0.1940,-0.3587,1.6416,-1.1307
1.136679,0.4560,1.1860,-0.2309,-0.3587,1.6416,-1.1307
1.137344,0.4560,1.1860,-0.2309,-0.3587,1.6416,-1.1307
1.137871,0.4560,1.1860,-0.2309,-0.3611,1.6698,-1.1404
1.138242,0.3273,1.2288,-0.4128,-0.3611,1.6698,-1.1404
1.139632,0.3273,1.2288,-0.4128,-0.3611,1.6698,-1.1404
1.139870,0.3273,1.2288,-0.4128,-0.3685,1.7003,-1.1440
1.140241,0.1721,1.1996,-0.7101,-0.3685,1.7003,-1.1440
1.143083,0.1721,1.1996,-0.7101,-0.3685,1.7003,-1.1440
1.143656,-0.1097,0.9977,-0.2739,-0.3685,1.7003,-1.1440
1.144366,-0.1097,0.9977,-0.2739,-0.3831,1.7223,-1.1429
1.145010,-0.1097,0.9977,-0.2739,-0.3831,1.7223,-1.1429
1.145510,-0.1097,0.9977,-0.2739,-0.3917,1.7211,-1.1379
1.145955,-0.4736,0.6541,0.0714,-0.3917,1.7211,-1.1379
1.147011,-0.4736,0.6541,0.0714,-0.3917,1.7211,-1.1379
1.147253,-0.4736,0.6541,0.0714,-0.3990,1.7126,-1.1245
1.147617,-0.9029,0.3856,0.1754,-0.3990,1.7126,-1.1245
1.149556,-0.9029,0.3856,0.1754,-0.3990,1.7126,-1.1245
1.150088,-0.9029,0.3856,0.1754,-0.4076,1.6918,-1.1012
1.150769,-1.3625,0.1934,0.5842,-0.4076,1.6918,-1.1012
1.151436,-1.3625,0.1934,0.5842,-0.4076,1.6918,-1.1012
1.151857,-1.3625,0.1934,0.5842,-0.4076,1.6538,-1.0707
1.152445,-1.2559,0.0582,0.7678,-0.4076,1.6538,-1.0707
1.154532,-1.2559,0.0582,0.7678,-0.4076,1.6538,-1.0707
1.154924,-1.2559,0.0582,0.7678,-0.4113,1.6087,-1.0487
1.155522,-1.0812,-0.0646,0.9250,-0.4113,1.6087,-1.0487
1.156134,-1.0812,-0.0646,0.9250,-0.4113,1.6087,-1.0487
1.156505,-1.0812,-0.0646,0.9250,-0.4136,1.5647,-1.0304
1.157068,-1.2985,-0.0441,1.1225,-0.4136,1.5647,-1.0304
1.161518,-1.2985,-0.0441,1.1225,-0.4136,1.5647,-1.0304
1.162074,-1.2985,-0.0441,1.1225,-0.4148,1.5183,-1.0109
1.162860,-1.6002,-0.0816,1.4672,-0.4148,1.5183,-1.0109
1.163451,-1.6002,-0.0816,1.4672,-0.4148,1.5183,-1.0109
1.163818,-1.6002,-0.0816,1.4672,-0.4125,1.4597,-0.9852
1.164372,-1.7345,-0.2671,1.8121,-0.4125,1.4597,-0.9852
1.164964,-1.7345,-0.2671,1.8121,-0.4125,1.4597,-0.9852
1.165357,-1.7345,-0.2671,1.8121,-0.4113,1.4120,-0.9644
1.165933,-1.6217,-0.2282,1.4584,-0.4113,1.4120,-0.9644
1.166501,-1.6217,-0.2282,1.4584,-0.4113,1.4120,-0.9644
1.166893,-1.6217,-0.2282,1.4584,-0.4113,1.3827,-0.9534
1.167401,-1.5480,-0.0847,1.7514,-0.4113,1.3827,-0.9534
1.167997,-1.5480,-0.0847,1.7514,-0.4113,1.3827,-0.9534
1.168364,-1.5480,-0.0847,1.7514,-0.4136,1.3472,-0.9474
1.168844,-1.3864,0.0273,1.6444,-0.4136,1.3472,-0.9474
1.189937,-1.3864,0.0273,1.6444,-0.4136,1.3472,-0.9474
1.190525,-1.3864,0.0273,1.6444,-0.4173,1.3179,-0.9499
1.191085,-1.2483,-0.1183,1.4883,-0.4173,1.3179,-0.9499
1.191724,-1.2483,-0.1183,1.4883,-0.4173,1.3179,-0.9499
1.192117,-1.2483,-0.1183,1.4883,-0.4136,1.2789,-0.9547
1.192637,-1.8583,-0.2040,2.2868,-0.4136,1.2789,-0.9547
1.193231,-2.0282,-0.4221,2.2009,-0.4136,1.2789,-0.9547
1.193910,-2.0282,-0.4221,2.2009,-0.4038,1.2129,-0.9547
1.194449,-2.0282,-0.4221,2.2009,-0.4038,1.2129,-0.9547
1.194852,-2.0282,-0.4221,2.2009,-0.4038,1.2129,-0.9547
1.195261,-1.8032,-0.5151,1.8968,-0.4038,1.2129,-0.9547
1.195853,-1.8032,-0.5151,1.8968,-0.3965,1.1531,-0.9547
1.196351,-1.8032,-0.5151,1.8968,-0.3965,1.1531,-0.9547
1.196756,-1.8032,-0.5151,1.8968,-0.3917,1.0968,-0.9609
1.197246,-1.9472,-0.4930,1.8389,-0.3917,1.0968,-0.9609
1.197991,-2.1092,-0.5800,1.7408,-0.3917,1.0968,-0.9609
1.198601,-2.1092,-0.5800,1.7408,-0.3893,1.0296,-0.9657
1.199129,-2.1092,-0.5800,1.7408,-0.3893,1.0296,-0.9657
1.199532,-2.0093,-0.6510,1.5689,-0.3893,1.0296,-0.9657
1.200045,-2.0093,-0.6510,1.5689,-0.3905,0.9503,-0.9694
1.200550,-2.0093,-0.6510,1.5689,-0.3905,0.9503,-0.9694
1.200964,-1.8602,-0.6850,1.4609,-0.3905,0.9503,-0.9694
1.201926,-1.8602,-0.6850,1.4609,-0.3905,0.9503,-0.9694
1.202407,-1.8602,-0.6850,1.4609,-0.3941,0.8695,-0.9779
1.202962,-1.8602,-0.6850,1.4609,-0.4051,0.7938,-0.9901
1.203573,-1.9583,-0.9000,1.1569,-0.4051,0.7938,-0.9901
1.204161,-1.9583,-0.9000,1.1569,-0.4051,0.7938,-0.9901
1.204587,-1.9583,-0.9000,1.1569,-0.4051,0.7938,-0.9901
1.205057,-1.9583,-0.9000,1.1569,-0.4235,0.7132,-1.0011
1.205730,-1.8547,-1.0004,0.7563,-0.4235,0.7132,-1.0011
1.206158,-1.8547,-1.0004,0.7563,-0.4235,0.7132,-1.0011
1.206376,-1.8547,-1.0004,0.7563,-0.4540,0.6424,-1.0157
1.206713,-1.7727,-0.8956,0.2849,-0.4540,0.6424,-1.0157
1.207059,-1.7727,-0.8956,0.2849,-0.4540,0.6424,-1.0157
1.207276,-1.7727,-0.8956,0.2849,-0.4931,0.5752,-1.0292
1.207603,-1.6704,-0.9142,0.0657,-0.4931,0.5752,-1.0292
1.207952,-1.6704,-0.9142,0.0657,-0.4931,0.5752,-1.0292
1.208538,-1.6704,-0.9142,0.0657,-0.5431,0.4994,-1.0439
1.208874,-1.6886,-0.8774,-0.3347,-0.5431,0.4994,-1.0439
1.209229,-1.6886,-0.8774,-0.3347,-0.5431,0.4994,-1.0439
1.209503,-1.6886,-0.8774,-0.3347,-0.6006,0.4151,-1.0537
1.209829,-1.7694,-0.9399,-0.5358,-0.6006,0.4151,-1.0537
1.210197,-1.7694,-0.9399,-0.5358,-0.6006,0.4151,-1.0537
1.210419,-1.7694,-0.9399,-0.5358,-0.6654,0.3356,-1.0610
1.210695,-1.6396,-0.9137,-0.9856,-0.6654,0.3356,-1.0610
1.211035,-1.6396,-0.9137,-0.9856,-0.6654,0.3356,-1.0610
1.211262,-1.6396,-0.9137,-0.9856,-0.7362,0.2623,-1.0682
1.211545,-1.3432,-0.7758,-1.1736,-0.7362,0.2623,-1.0682
1.211847,-1.3432,-0.7758,-1.1736,-0.7362,0.2623,-1.0682
1.212067,-1.3432,-0.7758,-1.1736,-0.8107,0.1855,-1.0805
1.212383,-1.1983,-0.6884,-1.1797,-0.8107,0.1855,-1.0805
1.212722,-1.1983,-0.6884,-1.1797,-0.8107,0.1855,-1.0805
1.212947,-1.1983,-0.6884,-1.1797,-0.8840,0.1011,-1.0927
1.213210,-1.4771,-0.7396,-1.3101,-0.8840,0.1011,-1.0927
1.213595,-1.4771,-0.7396,-1.3101,-0.8840,0.1011,-1.0927
1.213805,-1.4771,-0.7396,-1.3101,-0.9549,0.0205,-1.0989
1.214126,-1.5409,-0.6227,-1.4757,-0.9549,0.0205,-1.0989
1.230227,-1.5409,-0.6227,-1.4757,-0.9549,0.0205,-1.0989
1.230715,-1.5409,-0.6227,-1.4757,-1.0245,-0.0615,-1.1062
1.231262,-1.4579,-0.3388,-1.5753,-1.0245,-0.0615,-1.1062
1.231744,-1.4579,-0.3388,-1.5753,-1.0245,-0.0615,-1.1062
1.232060,-1.4579,-0.3388,-1.5753,-1.0942,-0.1323,-1.1111
1.232487,-1.4552,-0.1104,-1.6582,-1.0942,-0.1323,-1.1111
1.232932,-1.4552,-0.1104,-1.6582,-1.0942,-0.1323,-1.1111
1.233242,-1.4552,-0.1104,-1.6582,-1.1613,-0.2080,-1.1172
1.233743,-1.3373,-0.0127,-1.5767,-1.1613,-0.2080,-1.1172
1.234210,-1.3373,-0.0127,-1.5767,-1.1613,-0.2080,-1.1172
1.234563,-1.3373,-0.0127,-1.5767,-1.2248,-0.2973,-1.1221
1.234957,-1.2176,-0.1734,-1.2759,-1.2248,-0.2973,-1.1221
1.235413,-1.2176,-0.1734,-1.2759,-1.2248,-0.2973,-1.1221
1.235726,-1.2176,-0.1734,-1.2759,-1.2848,-0.4158,-1.1319
1.236143,-1.1216,-0.0832,-0.9926,-1.2848,-0.4158,-1.1319
1.236583,-1.1216,-0.0832,-0.9926,-1.2848,-0.4158,-1.1319
1.236901,-1.1778,0.0364,-1.2466,-1.2848,-0.4158,-1.1319
1.237344,-1.1778,0.0364,-1.2466,-1.3421,-0.5416,-1.1356
1.237797,-1.1778,0.0364,-1.2466,-1.3421,-0.5416,-1.1356
1.238142,-1.1778,0.0364,-1.2466,-1.4008,-0.6491,-1.1392
1.238528,-1.2186,0.2551,-1.6637,-1.4008,-0.6491,-1.1392
1.238965,-1.2186,0.2551,-1.6637,-1.4008,-0.6491,-1.1392
1.239273,-1.2186,0.2551,-1.6637,-1.4631,-0.7297,-1.1404
1.239677,-1.1292,0.2402,-1.9019,-1.4631,-0.7297,-1.1404
1.240143,-1.1292,0.2402,-1.9019,-1.4631,-0.7297,-1.1404
1.240457,-1.1292,0.2402,-1.9019,-1.5254,-0.8115,-1.1452
1.240902,-0.7434,0.2712,-1.7077,-1.5254,-0.8115,-1.1452
1.241355,-0.7434,0.2712,-1.7077,-1.5254,-0.8115,-1.1452
1.241760,-0.7434,0.2712,-1.7077,-1.5890,-0.9043,-1.1575
1.242206,-0.4465,0.1522,-1.7856,-1.5890,-0.9043,-1.1575
1.242728,-0.4465,0.1522,-1.7856,-1.5890,-0.9043,-1.1575
1.243077,-0.4465,0.1522,-1.7856,-1.6512,-0.9679,-1.1795
1.243501,-0.3732,0.1905,-2.1247,-1.6512,-0.9679,-1.1795
1.244170,-0.3732,0.1905,-2.1247,-1.6512,-0.9679,-1.1795
1.244465,-0.3732,0.1905,-2.1247,-1.7099,-1.0071,-1.2027
1.245015,-0.2109,0.3508,-2.2136,-1.7099,-1.0071,-1.2027
1.246285,-0.2109,0.3508,-2.2136,-1.7099,-1.0071,-1.2027
1.246759,-0.2109,0.3508,-2.2136,-1.7722,-1.0461,-1.2272
1.247448,-0.2344,0.2564,-2.3562,-1.7722,-1.0461,-1.2272
1.248399,-0.2344,0.2564,-2.3562,-1.7722,-1.0461,-1.2272
1.248959,-0.2344,0.2564,-2.3562,-1.8358,-1.0731,-1.2479
1.249980,-0.2109,-0.0280,-2.2894,-1.8358,-1.0731,-1.2479
1.250473,-0.2109,-0.0280,-2.2894,-1.8358,-1.0731,-1.2479
1.250962,-0.2109,-0.0280,-2.2894,-1.9018,-1.0926,-1.2650
1.251576,-0.0675,-0.3599,-2.2224,-1.9018,-1.0926,-1.2650
1.252110,-0.0675,-0.3599,-2.2224,-1.9018,-1.0926,-1.2650
1.252490,-0.0675,-0.3599,-2.2224,-1.9689,-1.1011,-1.2797
1.253173,0.1821,-0.4903,-2.0613,-1.9689,-1.1011,-1.2797
1.253643,0.1821,-0.4903,-2.0613,-1.9689,-1.1011,-1.2797
1.253895,0.1821,-0.4903,-2.0613,-2.0361,-1.1011,-1.2895
1.254243,0.3196,-0.5802,-1.8035,-2.0361,-1.1011,-1.2895
1.259272,0.3196,-0.5802,-1.8035,-2.0361,-1.1011,-1.2895
1.259551,0.3196,-0.5802,-1.8035,-2.0996,-1.0704,-1.2895
1.259910,0.1494,-0.6971,-1.2232,-2.0996,-1.0704,-1.2895
1.260283,0.1494,-0.6971,-1.2232,-2.0996,-1.0704,-1.2895
1.260506,0.1494,-0.6971,-1.2232,-2.1131,-0.9190,-1.2588
1.260804,-1.4644,-1.3352,2.0187,-2.1131,-0.9190,-1.2588
1.261114,-1.4644,-1.3352,2.0187,-2.1131,-0.9190,-1.2588
1.261328,-1.4644,-1.3352,2.0187,-1.9396,-0.3974,-1.1417
1.261707,-4.7409,-2.6844,9.9298,-1.9396,-0.3974,-1.1417
1.263937,-4.7409,-2.6844,9.9298,-1.9396,-0.3974,-1.1417
1.264635,-4.7409,-2.6844,9.9298,-1.5499,0.4481,-0.9094
1.265349,-4.3421,-2.7484,12.2715,-1.5499,0.4481,-0.9094
1.265973,-4.3421,-2.7484,12.2715,-1.5499,0.4481,-0.9094
1.266189,-4.3421,-2.7484,12.2715,-1.1931,1.0186,-0.7103
1.266514,-0.7271,-1.6667,8.8253,-1.1931,1.0186,-0.7103
1.268786,-0.7271,-1.6667,8.8253,-1.1931,1.0186,-0.7103
1.269045,-0.7271,-1.6667,8.8253,-0.9927,1.1799,-0.6285
1.269395,2.2541,-0.6791,3.9670,-0.9927,1.1799,-0.6285
1.269800,2.2541,-0.6791,3.9670,-0.9927,1.1799,-0.6285
1.270022,2.2541,-0.6791,3.9670,-0.9268,1.1421,-0.6395
1.270312,3.2822,-0.4616,0.8256,-0.9268,1.1421,-0.6395
1.272356,3.2822,-0.4616,0.8256,-0.9268,1.1421,-0.6395
1.272592,3.2822,-0.4616,0.8256,-0.9232,1.0601,-0.6883
1.272995,2.8886,-0.5119,-0.1099,-0.9232,1.0601,-0.6883
1.276543,2.8886,-0.5119,-0.1099,-0.9232,1.0601,-0.6883
1.277447,2.8886,-0.5119,-0.1099,-0.9475,0.9966,-0.7275
1.278179,2.1722,-0.5351,-0.2887,-0.9475,0.9966,-0.7275
1.278973,2.1722,-0.5351,-0.2887,-0.9475,0.9966,-0.7275
1.279413,2.1722,-0.5351,-0.2887,-0.9855,0.9538,-0.7408
1.280153,1.4129,-0.4699,-0.2248,-0.9855,0.9538,-0.7408
1.280808,1.4129,-0.4699,-0.2248,-0.9855,0.9538,-0.7408
1.281262,1.4129,-0.4699,-0.2248,-1.0295,0.9441,-0.7298
1.281996,0.9067,-0.4378,0.2630,-1.0295,0.9441,-0.7298
1.282573,0.9067,-0.4378,0.2630,-1.0295,0.9441,-0.7298
1.282952,0.9067,-0.4378,0.2630,-1.0685,0.9611,-0.7067
1.283538,0.7048,-0.2973,0.7151,-1.0685,0.9611,-0.7067
1.284072,0.7048,-0.2973,0.7151,-1.0685,0.9611,-0.7067
1.284463,0.7048,-0.2973,0.7151,-1.1027,0.9868,-0.6798
1.284947,0.8280,-0.2003,1.4362,-1.1027,0.9868,-0.6798
1.288631,0.8280,-0.2003,1.4362,-1.1027,0.9868,-0.6798
1.289078,0.8280,-0.2003,1.4362,-1.1260,0.9978,-0.6663
1.289856,0.8861,-0.1057,1.9703,-1.1260,0.9978,-0.6663
1.290474,0.8861,-0.1057,1.9703,-1.1260,0.9978,-0.6663
1.290933,0.8861,-0.1057,1.9703,-1.1406,0.9918,-0.6663
1.291484,0.9149,0.1606,1.9482,-1.1406,0.9918,-0.6663
1.292111,0.9149,0.1606,1.9482,-1.1406,0.9918,-0.6663
1.292505,0.9149,0.1606,1.9482,-1.1553,0.9613,-0.6835
1.293101,1.0311,0.3084,1.9516,-1.1553,0.9613,-0.6835
1.293724,1.0311,0.3084,1.9516,-1.1553,0.9613,-0.6835
1.294126,1.0311,0.3084,1.9516,-1.1663,0.8988,-0.7103
1.294650,1.0023,0.5107,2.1029,-1.1663,0.8988,-0.7103
1.302160,1.0023,0.5107,2.1029,-1.1663,0.8988,-0.7103
1.302977,1.0023,0.5107,2.1029,-1.1760,0.8134,-0.7446
1.303663,0.8937,0.6509,2.0374,-1.1760,0.8134,-0.7446
1.304117,0.8937,0.6509,2.0374,-1.1760,0.8134,-0.7446
1.304360,0.8937,0.6509,2.0374,-1.1870,0.7205,-0.7776
1.304719,0.6099,0.8116,1.8461,-1.1870,0.7205,-0.7776
1.305083,0.6099,0.8116,1.8461,-1.1870,0.7205,-0.7776
1.305326,0.6099,0.8116,1.8461,-1.2016,0.6326,-0.8008
1.305738,0.2170,1.0888,1.6766,-1.2016,0.6326,-0.8008
1.306102,-0.1490,1.3978,1.4417,-1.2016,0.6326,-0.8008
1.306478,-0.1490,1.3978,1.4417,-1.2016,0.6326,-0.8008
1.306723,-0.1490,1.3978,1.4417,-1.2163,0.5532,-0.8081
1.307086,-0.1490,1.3978,1.4417,-1.2163,0.5532,-0.8081
1.307356,-0.1490,1.3978,1.4417,-1.2346,0.4836,-0.8056
1.307664,-0.4321,1.4871,1.2215,-1.2346,0.4836,-0.8056
1.308030,-0.4321,1.4871,1.2215,-1.2346,0.4836,-0.8056
1.308292,-0.4321,1.4871,1.2215,-1.2554,0.4371,-0.7909
1.308611,-0.6189,1.6126,0.5048,-1.2554,0.4371,-0.7909
1.313306,-0.6189,1.6126,0.5048,-1.2554,0.4371,-0.7909
1.313927,-0.6189,1.6126,0.5048,-1.2909,0.4114,-0.7703
1.314332,-0.5587,2.1081,-0.1192,-1.2909,0.4114,-0.7703
1.314685,-0.5587,2.1081,-0.1192,-1.2909,0.4114,-0.7703
1.314934,-0.1899,2.3957,0.1551,-1.2909,0.4114,-0.7703
1.315298,-0.1899,2.3957,0.1551,-1.3324,0.3796,-0.7483
1.315674,-0.1899,2.3957,0.1551,-1.3324,0.3796,-0.7483
1.315918,-0.1899,2.3957,0.1551,-1.3641,0.3296,-0.7238
1.316278,-0.1889,2.5426,0.2664,-1.3641,0.3296,-0.7238
1.317655,-0.1889,2.5426,0.2664,-1.3641,0.3296,-0.7238
1.318280,-0.1889,2.5426,0.2664,-1.3911,0.2868,-0.6920
1.318733,-0.2050,2.6686,0.2313,-1.3911,0.2868,-0.6920
1.322975,-0.2050,2.6686,0.2313,-1.3911,0.2868,-0.6920
1.323498,-0.2050,2.6686,0.2313,-1.4131,0.2428,-0.6542
1.324252,-0.1646,2.8064,0.2322,-1.4131,0.2428,-0.6542
1.324903,-0.1646,2.8064,0.2322,-1.4131,0.2428,-0.6542
1.325352,-0.1646,2.8064,0.2322,-1.4339,0.2001,-0.6102
1.326062,-0.1626,2.8886,0.1829,-1.4339,0.2001,-0.6102
1.326434,-0.1626,2.8886,0.1829,-1.4339,0.2001,-0.6102
1.326710,-0.1626,2.8886,0.1829,-1.4509,0.1585,-0.5589
1.327130,-0.3252,2.8648,0.0766,-1.4509,0.1585,-0.5589
1.327560,-0.3252,2.8648,0.0766,-1.4509,0.1585,-0.5589
1.327830,-0.3252,2.8648,0.0766,-1.4679,0.1280,-0.5027
1.328194,-0.4120,3.0093,-0.0354,-1.4679,0.1280,-0.5027
1.330362,-0.4120,3.0093,-0.0354,-1.4679,0.1280,-0.5027
1.331079,-0.4120,3.0093,-0.0354,-1.4814,0.1023,-0.4392
1.331733,-0.4874,3.0338,-0.1515,-1.4814,0.1023,-0.4392
1.332564,-0.4874,3.0338,-0.1515,-1.4814,0.1023,-0.4392
1.332926,-0.4874,3.0338,-0.1515,-1.4974,0.0705,-0.3719
1.333358,-0.4156,2.8533,-0.0447,-1.4974,0.0705,-0.3719
1.333808,-0.4156,2.8533,-0.0447,-1.4974,0.0705,-0.3719
1.334089,-0.4156,2.8533,-0.0447,-1.5047,0.0375,-0.3109
1.334485,-0.3987,2.7581,-0.0322,-1.5047,0.0375,-0.3109
1.338052,-0.3987,2.7581,-0.0322,-1.5047,0.0375,-0.3109
1.338388,-0.3987,2.7581,-0.0322,-1.5095,0.0070,-0.2449
1.338776,-0.5182,2.6407,-0.0050,-1.5095,0.0070,-0.2449
1.339297,-0.5182,2.6407,-0.0050,-1.5095,0.0070,-0.2449
1.339606,-0.5182,2.6407,-0.0050,-1.5107,-0.0137,-0.1814
1.340062,-0.4794,2.5444,-0.1078,-1.5107,-0.0137,-0.1814
1.347261,-0.4794,2.5444,-0.1078,-1.5107,-0.0137,-0.1814
1.347853,-0.4794,2.5444,-0.1078,-1.5071,-0.0088,-0.1178
1.348538,-0.5860,2.3839,-0.2983,-1.5071,-0.0088,-0.1178
1.349173,-0.5860,2.3839,-0.2983,-1.5071,-0.0088,-0.1178
1.349662,-0.5860,2.3839,-0.2983,-1.5034,0.0120,-0.0494
1.350258,-0.7566,2.2751,-0.5817,-1.5034,0.0120,-0.0494
1.350747,-0.7566,2.2751,-0.5817,-1.5034,0.0120,-0.0494
1.351048,-0.7566,2.2751,-0.5817,-1.5059,0.0388,0.0202
1.351466,-0.7045,1.9972,-0.7332,-1.5059,0.0388,0.0202
1.351937,-0.7045,1.9972,-0.7332,-1.5059,0.0388,0.0202
1.352238,-0.7045,1.9972,-0.7332,-1.5059,0.0400,0.0923
1.352662,-0.5649,1.6183,-0.5258,-1.5059,0.0400,0.0923
1.353117,-0.5649,1.6183,-0.5258,-1.5059,0.0400,0.0923
1.353468,-0.5649,1.6183,-0.5258,-1.4997,0.0203,0.1668
1.353892,-0.6016,1.1295,-0.5416,-1.4997,0.0203,0.1668
1.354263,-0.6016,1.1295,-0.5416,-1.4997,0.0203,0.1668
1.354500,-0.6016,1.1295,-0.5416,-1.4961,-0.0162,0.2413
1.354879,-0.5949,0.6903,-0.3700,-1.4961,-0.0162,0.2413
1.355259,-0.5949,0.6903,-0.3700,-1.4961,-0.0162,0.2413
1.355501,-0.5949,0.6903,-0.3700,-1.4864,-0.0700,0.3158
1.355861,-0.4646,0.0899,-0.1438,-1.4864,-0.0700,0.3158
1.361529,-0.4646,0.0899,-0.1438,-1.4864,-0.0700,0.3158
1.362180,-0.4646,0.0899,-0.1438,-1.4741,-0.1262,0.3843
1.362849,-0.2382,-0.7354,-0.1008,-1.4741,-0.1262,0.3843
1.363261,-0.2382,-0.7354,-0.1008,-1.4741,-0.1262,0.3843
1.363542,-0.2382,-0.7354,-0.1008,-1.4594,-0.1738,0.4466
1.363967,0.0978,-1.5635,-0.1050,-1.4594,-0.1738,0.4466
1.364471,0.0978,-1.5635,-0.1050,-1.4594,-0.1738,0.4466
1.364777,0.0978,-1.5635,-0.1050,-1.4472,-0.2190,0.4942
1.365205,0.3275,-2.2733,-0.2299,-1.4472,-0.2190,0.4942
1.365763,0.3275,-2.2733,-0.2299,-1.4472,-0.2190,0.4942
1.366067,0.3275,-2.2733,-0.2299,-1.4339,-0.2545,0.5334
1.366469,0.5887,-2.9085,-0.2786,-1.4339,-0.2545,0.5334
1.366948,0.5887,-2.9085,-0.2786,-1.4339,-0.2545,0.5334
1.367254,0.5887,-2.9085,-0.2786,-1.4179,-0.2764,0.5614
1.367700,1.0082,-3.2659,0.0206,-1.4179,-0.2764,0.5614
1.370623,1.0082,-3.2659,0.0206,-1.4179,-0.2764,0.5614
1.370962,1.0082,-3.2659,0.0206,-1.3764,-0.3241,0.5687
1.371394,1.4836,-3.0940,0.7823,-1.3764,-0.3241,0.5687
1.371878,1.4836,-3.0940,0.7823,-1.3764,-0.3241,0.5687
1.372206,1.4836,-3.0940,0.7823,-1.3018,-0.4108,0.5589
1.372686,1.4731,-3.2104,0.9920,-1.3018,-0.4108,0.5589
1.375969,1.4731,-3.2104,0.9920,-1.3018,-0.4108,0.5589
1.376553,1.4731,-3.2104,0.9920,-1.2176,-0.4694,0.5516
1.377183,1.2623,-3.5661,1.0735,-1.2176,-0.4694,0.5516
1.377975,1.2623,-3.5661,1.0735,-1.2176,-0.4694,0.5516
1.378308,1.2623,-3.5661,1.0735,-1.1210,-0.4829,0.5529
1.378775,0.8491,-3.9587,1.2821,-1.1210,-0.4829,0.5529
1.379258,0.8491,-3.9587,1.2821,-1.1210,-0.4829,0.5529
1.379551,0.8491,-3.9587,1.2821,-1.0098,-0.4658,0.5639
1.380039,0.5108,-4.3588,1.5437,-1.0098,-0.4658,0.5639
1.382049,0.5108,-4.3588,1.5437,-1.0098,-0.4658,0.5639
1.382330,0.5108,-4.3588,1.5437,-0.8852,-0.4316,0.5797
1.382708,0.2562,-4.8766,1.9512,-0.8852,-0.4316,0.5797
1.383089,0.2562,-4.8766,1.9512,-0.8852,-0.4316,0.5797
1.383338,0.2562,-4.8766,1.9512,-0.7472,-0.3986,0.5981
1.383735,0.1401,-5.2518,2.1256,-0.7472,-0.3986,0.5981
1.386061,0.1401,-5.2518,2.1256,-0.7472,-0.3986,0.5981
1.386514,0.1401,-5.2518,2.1256,-0.5994,-0.3546,0.6066
1.387154,0.2861,-5.7301,2.1479,-0.5994,-0.3546,0.6066
1.387791,0.2861,-5.7301,2.1479,-0.5994,-0.3546,0.6066
1.388242,0.2861,-5.7301,2.1479,-0.4466,-0.3081,0.5921
1.388926,0.5621,-6.3056,2.1478,-0.4466,-0.3081,0.5921
1.392457,0.5621,-6.3056,2.1478,-0.4466,-0.3081,0.5921
1.392953,0.5621,-6.3056,2.1478,-0.3000,-0.2581,0.5261
1.393492,1.5394,-6.5340,2.0776,-0.3000,-0.2581,0.5261
1.394059,1.5394,-6.5340,2.0776,-0.3000,-0.2581,0.5261
1.394416,1.5394,-6.5340,2.0776,-0.1583,-0.2104,0.4100
1.394890,1.9884,-6.8451,1.9982,-0.1583,-0.2104,0.4100
1.395519,1.9884,-6.8451,1.9982,-0.1583,-0.2104,0.4100
1.395950,1.9884,-6.8451,1.9982,-0.0239,-0.1836,0.2646
1.396826,2.1306,-6.9594,1.9648,-0.0239,-0.1836,0.2646
1.397502,2.1306,-6.9594,1.9648,-0.0239,-0.1836,0.2646
1.397957,2.1306,-6.9594,1.9648,0.0994,-0.1836,0.1045
1.398519,2.1458,-6.9696,1.9019,0.0994,-0.1836,0.1045
1.402187,2.1458,-6.9696,1.9019,0.0994,-0.1836,0.1045
1.402657,2.1458,-6.9696,1.9019,0.2069,-0.2079,-0.0664
1.403275,1.9406,-7.0318,1.6437,0.2069,-0.2079,-0.0664
1.403862,1.9406,-7.0318,1.6437,0.2069,-0.2079,-0.0664
1.404280,1.9406,-7.0318,1.6437,0.2949,-0.2434,-0.2364
1.404801,1.6473,-7.0070,1.4044,0.2949,-0.2434,-0.2364
1.405399,1.6473,-7.0070,1.4044,0.2949,-0.2434,-0.2364
1.405895,1.6473,-7.0070,1.4044,0.3645,-0.2898,-0.4025
1.406437,1.4176,-6.8911,1.2492,0.3645,-0.2898,-0.4025
1.407023,1.4176,-6.8911,1.2492,0.3645,-0.2898,-0.4025
1.407453,1.4176,-6.8911,1.2492,0.4183,-0.3411,-0.5662
1.408037,1.1848,-6.6912,1.0975,0.4183,-0.3411,-0.5662
1.414579,1.1848,-6.6912,1.0975,0.4183,-0.3411,-0.5662
1.415565,1.1848,-6.6912,1.0975,0.4525,-0.3997,-0.7213
1.416700,0.8790,-6.4393,0.8803,0.4525,-0.3997,-0.7213
1.417575,0.8790,-6.4393,0.8803,0.4525,-0.3997,-0.7213
1.417931,0.8790,-6.4393,0.8803,0.4696,-0.4609,-0.8606
1.418342,0.5255,-6.1578,0.6711,0.4696,-0.4609,-0.8606
1.418707,0.5255,-6.1578,0.6711,0.4708,-0.5158,-0.9864
1.419041,0.1693,-5.8027,0.4761,0.4708,-0.5158,-0.9864
1.419365,0.1693,-5.8027,0.4761,0.4708,-0.5158,-0.9864
1.419583,-0.1418,-5.4837,0.2652,0.4708,-0.5158,-0.9864
1.421026,-0.1418,-5.4837,0.2652,0.4708,-0.5158,-0.9864
1.421485,-0.1418,-5.4837,0.2652,0.4587,-0.5672,-1.0927
1.421935,-0.1418,-5.4837,0.2652,0.4587,-0.5672,-1.0927
1.422189,-0.1418,-5.4837,0.2652,0.4355,-0.6111,-1.1795
1.422539,-0.4675,-5.1245,0.0631,0.4355,-0.6111,-1.1795
1.422889,-0.4675,-5.1245,0.0631,0.4355,-0.6111,-1.1795
1.423131,-0.4675,-5.1245,0.0631,0.4025,-0.6490,-1.2455
1.423425,-0.8266,-4.7416,-0.1398,0.4025,-0.6490,-1.2455
1.423768,-0.8266,-4.7416,-0.1398,0.4025,-0.6490,-1.2455
1.423997,-0.8266,-4.7416,-0.1398,0.3597,-0.6772,-1.2943
1.424329,-1.0597,-4.3402,-0.3470,0.3597,-0.6772,-1.2943
1.428247,-1.0597,-4.3402,-0.3470,0.3597,-0.6772,-1.2943
1.428635,-1.0597,-4.3402,-0.3470,0.3084,-0.6918,-1.3200
1.428995,-1.3770,-3.7987,-0.5700,0.3084,-0.6918,-1.3200
1.429341,-1.3770,-3.7987,-0.5700,0.3084,-0.6918,-1.3200
1.429677,-1.3770,-3.7987,-0.5700,0.2485,-0.7028,-1.3273
1.430029,-1.6702,-3.2633,-0.8197,0.2485,-0.7028,-1.3273
1.431163,-1.6702,-3.2633,-0.8197,0.2485,-0.7028,-1.3273
1.431385,-1.6702,-3.2633,-0.8197,0.1814,-0.7015,-1.3151
1.431681,-1.8521,-2.7133,-0.9988,0.1814,-0.7015,-1.3151
1.434237,-1.8521,-2.7133,-0.9988,0.1814,-0.7015,-1.3151
1.434688,-1.8521,-2.7133,-0.9988,0.1141,-0.6905,-1.2845
1.435298,-1.9568,-2.2239,-1.1350,0.1141,-0.6905,-1.2845
1.435856,-1.9568,-2.2239,-1.1350,0.1141,-0.6905,-1.2845
1.436664,-1.9568,-2.2239,-1.1350,0.0433,-0.6698,-1.2467
1.437198,-1.9536,-1.7441,-1.1800,0.0433,-0.6698,-1.2467
1.437939,-1.9536,-1.7441,-1.1800,0.0433,-0.6698,-1.2467
1.438445,-1.9536,-1.7441,-1.1800,-0.0264,-0.6405,-1.2040
1.439020,-1.8899,-1.3542,-1.1610,-0.0264,-0.6405,-1.2040
1.441870,-1.8899,-1.3542,-1.1610,-0.0264,-0.6405,-1.2040
1.442285,-1.8899,-1.3542,-1.1610,-0.0947,-0.6050,-1.1575
1.442666,-1.5600,-1.0088,-1.0826,-0.0947,-0.6050,-1.1575
1.443031,-1.5600,-1.0088,-1.0826,-0.0947,-0.6050,-1.1575
1.443267,-1.5600,-1.0088,-1.0826,-0.1620,-0.5659,-1.1135
1.443537,-1.2730,-0.7152,-0.9937,-0.1620,-0.5659,-1.1135
1.445709,-1.2730,-0.7152,-0.9937,-0.1620,-0.5659,-1.1135
1.445979,-1.2730,-0.7152,-0.9937,-0.2219,-0.5244,-1.0744
1.446349,-0.9330,-0.4740,-0.9270,-0.2219,-0.5244,-1.0744
1.447350,-0.9330,-0.4740,-0.9270,-0.2219,-0.5244,-1.0744
1.447606,-0.9330,-0.4740,-0.9270,-0.2817,-0.4829,-1.0462
1.447912,-0.6342,-0.2611,-0.8085,-0.2817,-0.4829,-1.0462
1.449884,-0.6342,-0.2611,-0.8085,-0.2817,-0.4829,-1.0462
1.450543,-0.6342,-0.2611,-0.8085,-0.3343,-0.4412,-1.0244
1.451077,-0.2941,-0.0792,-0.7739,-0.3343,-0.4412,-1.0244
1.452296,-0.2941,-0.0792,-0.7739,-0.3343,-0.4412,-1.0244
1.452551,-0.2941,-0.0792,-0.7739,-0.3868,-0.3949,-1.0121
1.452906,-0.0223,0.0608,-0.7998,-0.3868,-0.3949,-1.0121
1.455113,-0.0223,0.0608,-0.7998,-0.3868,-0.3949,-1.0121
1.455603,-0.0223,0.0608,-0.7998,-0.4320,-0.3424,-1.0011
1.456038,0.1436,0.1409,-0.7253,-0.4320,-0.3424,-1.0011
1.456686,0.1436,0.1409,-0.7253,-0.4320,-0.3424,-1.0011
1.457099,0.1436,0.1409,-0.7253,-0.4735,-0.2996,-0.9962
1.457655,0.3657,0.1984,-0.5263,-0.4735,-0.2996,-0.9962
1.459838,0.3657,0.1984,-0.5263,-0.4735,-0.2996,-0.9962
1.460210,0.3657,0.1984,-0.5263,-0.5066,-0.2666,-0.9974
1.460610,0.5351,0.2141,-0.3570,-0.5066,-0.2666,-0.9974
1.464512,0.5351,0.2141,-0.3570,-0.5066,-0.2666,-0.9974
1.464878,0.5351,0.2141,-0.3570,-0.5321,-0.2410,-0.9987
1.465473,0.6034,0.2566,-0.2666,-0.5321,-0.2410,-0.9987
1.465942,0.6034,0.2566,-0.2666,-0.5321,-0.2410,-0.9987
1.466242,0.6034,0.2566,-0.2666,-0.5518,-0.2129,-0.9999
1.466692,0.6141,0.3389,-0.0855,-0.5518,-0.2129,-0.9999
1.467163,0.6141,0.3389,-0.0855,-0.5518,-0.2129,-0.9999
1.467476,0.6141,0.3389,-0.0855,-0.5664,-0.1933,-1.0036
1.467924,0.7043,0.2976,0.0772,-0.5664,-0.1933,-1.0036
1.469372,0.7043,0.2976,0.0772,-0.5664,-0.1933,-1.0036
1.469759,0.7043,0.2976,0.0772,-0.5761,-0.1763,-1.0072
1.470223,0.7770,0.2802,0.1807,-0.5761,-0.1763,-1.0072
1.471469,0.7770,0.2802,0.1807,-0.5761,-0.1763,-1.0072
1.471792,0.7770,0.2802,0.1807,-0.5823,-0.1603,-1.0121
1.472265,0.6309,0.2596,0.1685,-0.5823,-0.1603,-1.0121
1.475060,0.6309,0.2596,0.1685,-0.5823,-0.1603,-1.0121
1.475670,0.6309,0.2596,0.1685,-0.5846,-0.1506,-1.0170
1.476304,0.5963,0.2063,0.1844,-0.5846,-0.1506,-1.0170
1.477088,0.5963,0.2063,0.1844,-0.5846,-0.1506,-1.0170
1.477618,0.5963,0.2063,0.1844,-0.5871,-0.1408,-1.0219
1.478145,0.6818,0.1203,0.3402,-0.5871,-0.1408,-1.0219
1.478550,0.6818,0.1203,0.3402,-0.5871,-0.1408,-1.0219
1.478834,0.6818,0.1203,0.3402,-0.5835,-0.1213,-1.0267
1.479339,0.6473,0.1413,0.4812,-0.5835,-0.1213,-1.0267
1.481465,0.6473,0.1413,0.4812,-0.5835,-0.1213,-1.0267
1.481839,0.6473,0.1413,0.4812,-0.5725,-0.0968,-1.0280
1.482394,0.6822,0.1122,0.7071,-0.5725,-0.0968,-1.0280
1.482901,0.6822,0.1122,0.7071,-0.5725,-0.0968,-1.0280
1.483226,0.6822,0.1122,0.7071,-0.5578,-0.0748,-1.0292
1.483641,0.6228,0.0902,0.7750,-0.5578,-0.0748,-1.0292
1.485599,0.6228,0.0902,0.7750,-0.5578,-0.0748,-1.0292
1.485960,0.6228,0.0902,0.7750,-0.5419,-0.0602,-1.0280
1.486369,0.6397,0.2186,0.8582,-0.5419,-0.0602,-1.0280
1.488112,0.6397,0.2186,0.8582,-0.5419,-0.0602,-1.0280
1.488609,0.6397,0.2186,0.8582,-0.5273,-0.0492,-1.0219
1.489251,0.4400,0.3339,0.8773,-0.5273,-0.0492,-1.0219
1.489982,0.4400,0.3339,0.8773,-0.5273,-0.0492,-1.0219
1.490337,0.4400,0.3339,0.8773,-0.5090,-0.0516,-1.0097
1.490814,0.3253,0.3976,1.0041,-0.5090,-0.0516,-1.0097
1.493139,0.3253,0.3976,1.0041,-0.5090,-0.0516,-1.0097
1.493869,0.3253,0.3976,1.0041,-0.4894,-0.0528,-0.9974
1.494363,0.4496,0.4933,1.1081,-0.4894,-0.0528,-0.9974
1.494883,0.4496,0.4933,1.1081,-0.4894,-0.0528,-0.9974
1.495204,0.4496,0.4933,1.1081,-0.4663,-0.0382,-0.9829
1.495710,0.3468,0.5643,1.1893,-0.4663,-0.0382,-0.9829
1.498538,0.3468,0.5643,1.1893,-0.4663,-0.0382,-0.9829
1.498980,0.3468,0.5643,1.1893,-0.4418,-0.0345,-0.9632
1.499511,0.2342,0.7018,1.1013,-0.4418,-0.0345,-0.9632
1.500063,0.2342,0.7018,1.1013,-0.4418,-0.0345,-0.9632
1.500429,0.2342,0.7018,1.1013,-0.4173,-0.0382,-0.9351
1.500850,0.2243,0.7907,1.0228,-0.4173,-0.0382,-0.9351
1.502754,0.2243,0.7907,1.0228,-0.4173,-0.0382,-0.9351
1.503157,0.2243,0.7907,1.0228,-0.3978,-0.0382,-0.9009
1.503732,0.1395,0.7521,1.0283,-0.3978,-0.0382,-0.9009
1.504311,0.1395,0.7521,1.0283,-0.3978,-0.0382,-0.9009
1.504660,0.1395,0.7521,1.0283,-0.3733,-0.0395,-0.8668
1.505188,-0.0537,0.7965,1.1342,-0.3733,-0.0395,-0.8668
1.508987,-0.0537,0.7965,1.1342,-0.3733,-0.0395,-0.8668
1.509651,-0.0537,0.7965,1.1342,-0.3477,-0.0492,-0.8288
1.510265,-0.3541,0.8685,1.2575,-0.3477,-0.0492,-0.8288
1.510888,-0.3541,0.8685,1.2575,-0.3477,-0.0492,-0.8288
1.511286,-0.3541,0.8685,1.2575,-0.3196,-0.0688,-0.7836
1.511844,-0.5110,0.8998,1.3720,-0.3196,-0.0688,-0.7836
1.512485,-0.5110,0.8998,1.3720,-0.3196,-0.0688,-0.7836
1.512885,-0.5110,0.8998,1.3720,-0.2940,-0.0920,-0.7323
1.513532,-0.7462,0.8400,1.5375,-0.2940,-0.0920,-0.7323
1.514110,-0.7462,0.8400,1.5375,-0.2940,-0.0920,-0.7323
1.514408,-0.7462,0.8400,1.5375,-0.2646,-0.1238,-0.6798
1.514911,-0.9929,0.7179,1.4581,-0.2646,-0.1238,-0.6798
1.517818,-0.9929,0.7179,1.4581,-0.2646,-0.1238,-0.6798
1.518180,-0.9929,0.7179,1.4581,-0.2365,-0.1458,-0.6260
1.518696,-1.1113,0.6974,1.2982,-0.2365,-0.1458,-0.6260
1.519171,-1.1113,0.6974,1.2982,-0.2365,-0.1458,-0.6260
1.519475,-1.1113,0.6974,1.2982,-0.2085,-0.1603,-0.5723
1.519840,-1.1497,0.6719,1.2111,-0.2085,-0.1603,-0.5723
1.521345,-1.1497,0.6719,1.2111,-0.2085,-0.1603,-0.5723
1.521794,-1.1497,0.6719,1.2111,-0.1840,-0.1701,-0.5173
1.522319,-1.1333,0.5255,0.8621,-0.1840,-0.1701,-0.5173
1.524221,-1.1333,0.5255,0.8621,-0.1840,-0.1701,-0.5173
1.524700,-1.1333,0.5255,0.8621,-0.1645,-0.1786,-0.4660
1.525282,-1.1571,0.4650,0.7010,-0.1645,-0.1786,-0.4660
1.525992,-1.1571,0.4650,0.7010,-0.1645,-0.1786,-0.4660
1.526301,-1.1571,0.4650,0.7010,-0.1462,-0.1946,-0.4172
1.526694,-0.9896,0.4549,0.7377,-0.1462,-0.1946,-0.4172
1.528457,-0.9896,0.4549,0.7377,-0.1462,-0.1946,-0.4172
1.528796,-0.9896,0.4549,0.7377,-0.1302,-0.2104,-0.3707
1.529222,-0.9228,0.2987,0.6194,-0.1302,-0.2104,-0.3707
1.530521,-0.9228,0.2987,0.6194,-0.1302,-0.2104,-0.3707
1.530752,-0.9228,0.2987,0.6194,-0.1192,-0.2251,-0.3316
1.531020,-0.8181,0.2365,0.5067,-0.1192,-0.2251,-0.3316
1.532679,-0.8181,0.2365,0.5067,-0.1192,-0.2251,-0.3316
1.532978,-0.8181,0.2365,0.5067,-0.1082,-0.2409,-0.2974
1.533606,-0.6320,0.1717,0.5517,-0.1082,-0.2409,-0.2974
1.535479,-0.6320,0.1717,0.5517,-0.1082,-0.2409,-0.2974
1.535935,-0.6320,0.1717,0.5517,-0.0936,-0.2569,-0.2681
1.536566,-0.5598,0.0812,0.5765,-0.0936,-0.2569,-0.2681
1.538185,-0.5598,0.0812,0.5765,-0.0936,-0.2569,-0.2681
1.538439,-0.5598,0.0812,0.5765,-0.0814,-0.2691,-0.2424
1.538784,-0.5194,0.1432,0.5692,-0.0814,-0.2691,-0.2424
1.540847,-0.5194,0.1432,0.5692,-0.0814,-0.2691,-0.2424
1.541201,-0.5194,0.1432,0.5692,-0.0692,-0.2886,-0.2266
1.541631,-0.2216,0.2251,0.6736,-0.0692,-0.2886,-0.2266
1.543017,-0.2216,0.2251,0.6736,-0.0692,-0.2886,-0.2266
1.543270,-0.2216,0.2251,0.6736,-0.0532,-0.3168,-0.2168
1.543593,-0.1246,0.3091,0.6929,-0.0532,-0.3168,-0.2168
1.544460,-0.1246,0.3091,0.6929,-0.0532,-0.3168,-0.2168
1.544683,-0.1246,0.3091,0.6929,-0.0374,-0.3387,-0.2106
1.544996,-0.1343,0.2601,0.2750,-0.0374,-0.3387,-0.2106
1.547342,-0.1343,0.2601,0.2750,-0.0374,-0.3387,-0.2106
1.547791,-0.1343,0.2601,0.2750,-0.0239,-0.3241,-0.2094
1.548330,-0.1369,0.1203,-0.0975,-0.0239,-0.3241,-0.2094
1.549528,-0.1369,0.1203,-0.0975,-0.0239,-0.3241,-0.2094
1.549801,-0.1369,0.1203,-0.0975,-0.0142,-0.2874,-0.2106
1.550146,0.1233,0.0492,-0.1842,-0.0142,-0.2874,-0.2106
1.551681,0.1233,0.0492,-0.1842,-0.0142,-0.2874,-0.2106
1.551947,0.1233,0.0492,-0.1842,-0.0019,-0.2581,-0.2156
1.552262,0.2698,0.0855,-0.1972,-0.0019,-0.2581,-0.2156
1.554776,0.2698,0.0855,-0.1972,-0.0019,-0.2581,-0.2156
1.555725,0.2698,0.0855,-0.1972,0.0103,-0.2410,-0.2204
1.556230,0.4515,0.1112,-0.1132,0.0103,-0.2410,-0.2204
1.556873,0.4515,0.1112,-0.1132,0.0103,-0.2410,-0.2204
1.557357,0.4515,0.1112,-0.1132,0.0261,-0.2373,-0.2289
1.558084,0.4882,0.1627,-0.0849,0.0261,-0.2373,-0.2289
1.561858,0.4882,0.1627,-0.0849,0.0261,-0.2373,-0.2289
1.562273,0.4882,0.1627,-0.0849,0.0433,-0.2299,-0.2399
1.562684,0.5422,0.1066,-0.0618,0.0433,-0.2299,-0.2399
1.563119,0.5422,0.1066,-0.0618,0.0433,-0.2299,-0.2399
1.563380,0.5422,0.1066,-0.0618,0.0616,-0.2251,-0.2509
1.563737,0.4636,0.0486,-0.0840,0.0616,-0.2251,-0.2509
1.564169,0.4636,0.0486,-0.0840,0.0616,-0.2251,-0.2509
1.564508,0.4636,0.0486,-0.0840,0.0836,-0.2129,-0.2619
1.565314,0.3750,-0.0597,-0.0703,0.0836,-0.2129,-0.2619
1.566122,0.3750,-0.0597,-0.0703,0.0836,-0.2129,-0.2619
1.566587,0.3750,-0.0597,-0.0703,0.1092,-0.1884,-0.2779
1.567141,0.2769,-0.2246,-0.2057,0.1092,-0.1884,-0.2779
1.569883,0.2769,-0.2246,-0.2057,0.1092,-0.1884,-0.2779
1.570359,0.2769,-0.2246,-0.2057,0.1312,-0.1456,-0.2986
1.571000,0.3951,-0.4854,-0.2300,0.1312,-0.1456,-0.2986
1.571590,0.3951,-0.4854,-0.2300,0.1312,-0.1456,-0.2986
1.572039,0.3951,-0.4854,-0.2300,0.1532,-0.1163,-0.3255
1.572648,0.4457,-0.5519,-0.2702,0.1532,-0.1163,-0.3255
1.573296,0.4457,-0.5519,-0.2702,0.1532,-0.1163,-0.3255
1.573859,0.4457,-0.5519,-0.2702,0.1739,-0.0931,-0.3597
1.574443,0.4841,-0.5338,-0.1277,0.1739,-0.0931,-0.3597
1.584403,0.4841,-0.5338,-0.1277,0.1739,-0.0931,-0.3597
1.585237,0.4841,-0.5338,-0.1277,0.1972,-0.0760,-0.3952
1.586210,0.5168,-0.4259,-0.0838,0.1972,-0.0760,-0.3952
1.587135,0.5168,-0.4259,-0.0838,0.1972,-0.0760,-0.3952
1.587775,0.5168,-0.4259,-0.0838,0.2192,-0.0698,-0.4317
1.588927,0.3501,-0.3143,-0.2443,0.2192,-0.0698,-0.4317
1.589831,0.3501,-0.3143,-0.2443,0.2192,-0.0698,-0.4317
1.590346,0.3501,-0.3143,-0.2443,0.2339,-0.0760,-0.4465
1.590894,-0.4071,-0.2835,-0.2702,0.2339,-0.0760,-0.4465
1.591615,-0.4071,-0.2835,-0.2702,0.2339,-0.0760,-0.4465
1.592192,-0.4071,-0.2835,-0.2702,0.2412,-0.0760,-0.4000
1.592881,-0.8309,-0.5204,-0.0387,0.2412,-0.0760,-0.4000
1.593613,-0.8309,-0.5204,-0.0387,0.2412,-0.0760,-0.4000
1.593997,-0.8309,-0.5204,-0.0387,0.2534,-0.1016,-0.3304
1.594307,-0.5597,-0.7666,0.0510,0.2534,-0.1016,-0.3304
1.596131,-0.5597,-0.7666,0.0510,0.2534,-0.1016,-0.3304
1.596571,-0.5597,-0.7666,0.0510,0.2657,-0.1236,-0.2900
1.596987,-0.0453,-0.9814,0.1728,0.2657,-0.1236,-0.2900
1.597307,-0.0453,-0.9814,0.1728,0.2657,-0.1236,-0.2900
1.597605,-0.0453,-0.9814,0.1728,0.2815,-0.1310,-0.2974
1.597877,0.3594,-1.0373,0.0227,0.2815,-0.1310,-0.2974
1.598244,0.3594,-1.0373,0.0227,0.2815,-0.1310,-0.2974
1.598459,0.3594,-1.0373,0.0227,0.2937,-0.1236,-0.3402
1.598762,0.5640,-0.9092,-0.2682,0.2937,-0.1236,-0.3402
1.599139,0.5640,-0.9092,-0.2682,0.2937,-0.1236,-0.3402
1.599353,0.5640,-0.9092,-0.2682,0.3010,-0.1103,-0.4012
1.599629,0.6546,-0.6415,-0.3450,0.3010,-0.1103,-0.4012
1.599962,0.6546,-0.6415,-0.3450,0.3010,-0.1103,-0.4012
1.600172,0.7791,-0.4524,-0.4990,0.3010,-0.1103,-0.4012
1.600477,0.7791,-0.4524,-0.4990,0.3059,-0.0993,-0.4709
1.600769,0.7791,-0.4524,-0.4990,0.3059,-0.0993,-0.4709
1.600991,0.7791,-0.4524,-0.4990,0.3084,-0.0883,-0.5430
1.601269,0.9463,-0.3087,-0.6781,0.3084,-0.0883,-0.5430
1.601691,0.9463,-0.3087,-0.6781,0.3084,-0.0883,-0.5430
1.601917,0.9463,-0.3087,-0.6781,0.3059,-0.0808,-0.6187
1.602211,1.1009,-0.1911,-0.6110,0.3059,-0.0808,-0.6187
1.610164,1.1009,-0.1911,-0.6110,0.3059,-0.0808,-0.6187
1.611095,1.1009,-0.1911,-0.6110,0.3059,-0.0821,-0.6981
1.611572,1.1036,-0.0497,-0.6694,0.3059,-0.0821,-0.6981
1.611968,1.1036,-0.0497,-0.6694,0.3059,-0.0821,-0.6981
1.612202,1.1036,-0.0497,-0.6694,0.3047,-0.0918,-0.7739
1.612479,0.8118,0.1124,-0.6971,0.3047,-0.0918,-0.7739
1.612788,0.8118,0.1124,-0.6971,0.3047,-0.0918,-0.7739
1.613006,0.8118,0.1124,-0.6971,0.3022,-0.0993,-0.8264
1.613309,0.3354,0.3048,-0.5874,0.3022,-0.0993,-0.8264
1.613714,0.3354,0.3048,-0.5874,0.3022,-0.0993,-0.8264
1.613937,0.3354,0.3048,-0.5874,0.3047,-0.1005,-0.8508
1.614211,-0.1192,0.4702,-0.5728,0.3047,-0.1005,-0.8508
1.614529,-0.1192,0.4702,-0.5728,0.3047,-0.1005,-0.8508
1.614756,-0.1192,0.4702,-0.5728,0.3108,-0.0993,-0.8399
1.615029,-0.2877,0.6860,-0.3725,0.3108,-0.0993,-0.8399
1.615374,-0.2877,0.6860,-0.3725,0.3108,-0.0993,-0.8399
1.615591,-0.2877,0.6860,-0.3725,0.3205,-0.1151,-0.8081
1.615876,-0.3674,0.7562,-0.0245,0.3205,-0.1151,-0.8081
1.618203,-0.3674,0.7562,-0.0245,0.3205,-0.1151,-0.8081
1.618682,-0.3674,0.7562,-0.0245,0.3292,-0.1420,-0.7506
1.619390,-0.4800,0.8114,0.1463,0.3292,-0.1420,-0.7506
1.623950,-0.4800,0.8114,0.1463,0.3292,-0.1420,-0.7506
1.624566,-0.4800,0.8114,0.1463,0.3414,-0.1713,-0.6725
1.624953,-0.5129,0.7847,0.3125,0.3414,-0.1713,-0.6725
1.625656,-0.5129,0.7847,0.3125,0.3414,-0.1713,-0.6725
1.626068,-0.5129,0.7847,0.3125,0.3512,-0.2018,-0.5783
1.626492,-0.3884,0.7091,0.5280,0.3512,-0.2018,-0.5783
1.626975,-0.3884,0.7091,0.5280,0.3512,-0.2018,-0.5783
1.627294,-0.3884,0.7091,0.5280,0.3535,-0.2386,-0.4745
1.627727,-0.2215,0.5208,0.6476,0.3535,-0.2386,-0.4745
1.628268,-0.2215,0.5208,0.6476,0.3535,-0.2386,-0.4745
1.628574,-0.2215,0.5208,0.6476,0.3535,-0.2788,-0.3609
1.628931,-0.1724,0.3420,0.8251,0.3535,-0.2788,-0.3609
1.630824,-0.1724,0.3420,0.8251,0.3535,-0.2788,-0.3609
1.631147,-0.1724,0.3420,0.8251,0.3499,-0.3326,-0.2399
1.631557,-0.0695,0.0696,0.9181,0.3499,-0.3326,-0.2399
1.632671,-0.0695,0.0696,0.9181,0.3499,-0.3326,-0.2399
1.633000,-0.0695,0.0696,0.9181,0.3438,-0.3777,-0.1178
1.633615,-0.0284,-0.1860,0.7365,0.3438,-0.3777,-0.1178
1.634921,-0.0284,-0.1860,0.7365,0.3438,-0.3777,-0.1178
1.635245,-0.0284,-0.1860,0.7365,0.3352,-0.4059,0.0007
1.635671,-0.1087,-0.3946,0.5356,0.3352,-0.4059,0.0007
1.637127,-0.1087,-0.3946,0.5356,0.3352,-0.4059,0.0007
1.637532,-0.1087,-0.3946,0.5356,0.3279,-0.4084,0.1180
1.638027,-0.0908,-0.5330,0.3174,0.3279,-0.4084,0.1180
1.640388,-0.0908,-0.5330,0.3174,0.3279,-0.4084,0.1180
1.641330,-0.0908,-0.5330,0.3174,0.3194,-0.3876,0.2267
1.642663,0.0408,-0.6622,0.0956,0.3194,-0.3876,0.2267
1.643469,0.0408,-0.6622,0.0956,0.3194,-0.3876,0.2267
1.643781,0.0408,-0.6622,0.0956,0.3108,-0.3594,0.3196
1.644192,0.3081,-0.7145,0.0237,0.3108,-0.3594,0.3196
1.644802,0.3081,-0.7145,0.0237,0.3108,-0.3594,0.3196
1.645203,0.3081,-0.7145,0.0237,0.2998,-0.3326,0.3904
1.645731,0.5453,-0.6758,-0.0524,0.2998,-0.3326,0.3904
1.649694,0.5453,-0.6758,-0.0524,0.2998,-0.3326,0.3904
1.650156,0.5453,-0.6758,-0.0524,0.2852,-0.3106,0.4454
1.650757,0.8014,-0.6294,-0.1155,0.2852,-0.3106,0.4454
1.651354,0.8014,-0.6294,-0.1155,0.2852,-0.3106,0.4454
1.651751,0.8014,-0.6294,-0.1155,0.2607,-0.2947,0.4821
1.652219,0.8480,-0.4143,-0.1106,0.2607,-0.2947,0.4821
1.652826,0.8480,-0.4143,-0.1106,0.2607,-0.2947,0.4821
1.653200,0.8480,-0.4143,-0.1106,0.2241,-0.2971,0.5126
1.653848,0.8296,-0.1556,-0.0459,0.2241,-0.2971,0.5126
1.654478,0.8296,-0.1556,-0.0459,0.2241,-0.2971,0.5126
1.654870,0.8296,-0.1556,-0.0459,0.1777,-0.3154,0.5371
1.655400,0.6846,0.1870,0.0330,0.1777,-0.3154,0.5371
1.656021,0.6846,0.1870,0.0330,0.1777,-0.3154,0.5371
1.656415,0.6846,0.1870,0.0330,0.1189,-0.3497,0.5627
1.656904,0.5299,0.6297,0.2680,0.1189,-0.3497,0.5627
1.662796,0.5299,0.6297,0.2680,0.1189,-0.3497,0.5627
1.663400,0.5299,0.6297,0.2680,0.0494,-0.3887,0.5908
1.664073,0.3935,0.9808,0.3910,0.0494,-0.3887,0.5908
1.664735,0.3935,0.9808,0.3910,0.0494,-0.3887,0.5908
1.665267,0.3935,0.9808,0.3910,-0.0214,-0.4229,0.6141
1.665963,0.2910,1.2406,0.4223,-0.0214,-0.4229,0.6141
1.666373,0.2910,1.2406,0.4223,-0.0214,-0.4229,0.6141
1.666600,0.2910,1.2406,0.4223,-0.0947,-0.4510,0.6348
1.666896,0.2727,1.3494,0.3930,-0.0947,-0.4510,0.6348
1.667271,0.2727,1.3494,0.3930,-0.0947,-0.4510,0.6348
1.667538,0.2727,1.3494,0.3930,-0.1657,-0.4755,0.6494
1.667863,0.3187,1.3192,0.3020,-0.1657,-0.4755,0.6494
1.668239,0.3187,1.3192,0.3020,-0.1657,-0.4755,0.6494
1.668476,0.3187,1.3192,0.3020,-0.2377,-0.4999,0.6556
1.668825,0.4006,1.3290,0.2465,-0.2377,-0.4999,0.6556
1.671106,0.4006,1.3290,0.2465,-0.2377,-0.4999,0.6556
1.671372,0.4006,1.3290,0.2465,-0.3050,-0.5317,0.6568
1.671772,0.6273,1.5151,0.2301,-0.3050,-0.5317,0.6568
1.672157,0.6273,1.5151,0.2301,-0.3050,-0.5317,0.6568
1.672715,0.6273,1.5151,0.2301,-0.3636,-0.5647,0.6507
1.673063,0.7927,1.7085,-0.0859,-0.3636,-0.5647,0.6507
1.675230,0.7927,1.7085,-0.0859,-0.3636,-0.5647,0.6507
1.675885,0.7927,1.7085,-0.0859,-0.4148,-0.5745,0.6348
1.676411,1.0315,1.6913,-0.3846,-0.4148,-0.5745,0.6348
1.678565,1.0315,1.6913,-0.3846,-0.4148,-0.5745,0.6348
1.678887,1.0315,1.6913,-0.3846,-0.4553,-0.5622,0.6079
1.679378,1.0978,1.6264,-0.6262,-0.4553,-0.5622,0.6079
1.679819,1.0978,1.6264,-0.6262,-0.4553,-0.5622,0.6079
1.680090,1.0978,1.6264,-0.6262,-0.4858,-0.5280,0.5786
1.680530,1.0943,1.5359,-0.7596,-0.4858,-0.5280,0.5786
1.682025,1.0943,1.5359,-0.7596,-0.4858,-0.5280,0.5786
1.682324,1.0943,1.5359,-0.7596,-0.5066,-0.4852,0.5481
1.682729,1.1304,1.5696,-0.7821,-0.5066,-0.4852,0.5481
1.684820,1.1304,1.5696,-0.7821,-0.5066,-0.4852,0.5481
1.685306,1.1304,1.5696,-0.7821,-0.5199,-0.4389,0.5151
1.686094,1.3248,1.7597,-0.7032,-0.5199,-0.4389,0.5151
1.686550,1.3248,1.7597,-0.7032,-0.5199,-0.4389,0.5151
1.686831,1.3248,1.7597,-0.7032,-0.5175,-0.3985,0.4760
1.687264,1.4455,1.7772,-0.5450,-0.5175,-0.3985,0.4760
1.690964,1.4455,1.7772,-0.5450,-0.5175,-0.3985,0.4760
1.691634,1.4455,1.7772,-0.5450,-0.5041,-0.3607,0.4344
1.692284,1.5134,1.8652,-0.4590,-0.5041,-0.3607,0.4344
1.692963,1.5134,1.8652,-0.4590,-0.5041,-0.3607,0.4344
1.693393,1.5134,1.8652,-0.4590,-0.4773,-0.3142,0.3941
1.694053,1.6473,1.8264,-0.4449,-0.4773,-0.3142,0.3941
1.694506,1.6473,1.8264,-0.4449,-0.4773,-0.3142,0.3941
1.694794,1.6473,1.8264,-0.4449,-0.4393,-0.2629,0.3525
1.695243,1.8236,1.8560,-0.4532,-0.4393,-0.2629,0.3525
1.701514,1.8236,1.8560,-0.4532,-0.4393,-0.2629,0.3525
1.701984,1.8236,1.8560,-0.4532,-0.3928,-0.2129,0.3110
1.702958,2.0660,1.9850,-0.5159,-0.3928,-0.2129,0.3110
1.703962,2.0660,1.9850,-0.5159,-0.3928,-0.2129,0.3110
1.704518,2.0660,1.9850,-0.5159,-0.3428,-0.1554,0.2695
1.705335,2.1857,2.3762,-0.8471,-0.3428,-0.1554,0.2695
1.706258,2.1857,2.3762,-0.8471,-0.3428,-0.1554,0.2695
1.706831,2.1857,2.3762,-0.8471,-0.2988,-0.0808,0.2280
1.707632,2.3960,2.7386,-1.4083,-0.2988,-0.0808,0.2280
1.708618,2.3960,2.7386,-1.4083,-0.2988,-0.0808,0.2280
1.709245,2.3960,2.7386,-1.4083,-0.2695,0.0180,0.1815
1.709924,2.6384,3.1875,-2.1919,-0.2695,0.0180,0.1815
1.710524,2.6384,3.1875,-2.1919,-0.2695,0.0180,0.1815
1.711031,2.6384,3.1875,-2.1919,-0.2670,0.1427,0.1277
1.711589,3.0629,3.7190,-3.2382,-0.2670,0.1427,0.1277
1.712233,3.0629,3.7190,-3.2382,-0.2670,0.1427,0.1277
1.712652,3.0629,3.7190,-3.2382,-0.3073,0.3076,0.0606
1.713223,3.5832,4.2332,-4.2688,-0.3073,0.3076,0.0606
1.713866,3.5832,4.2332,-4.2688,-0.3073,0.3076,0.0606
1.714289,3.5832,4.2332,-4.2688,-0.3893,0.4958,-0.0238
1.714842,4.0172,4.7375,-5.2432,-0.3893,0.4958,-0.0238
1.715567,4.0172,4.7375,-5.2432,-0.3893,0.4958,-0.0238
1.715977,4.0172,4.7375,-5.2432,-0.5041,0.6900,-0.1202
1.716533,4.3851,5.2260,-5.8779,-0.5041,0.6900,-0.1202
1.717128,4.3851,5.2260,-5.8779,-0.5041,0.6900,-0.1202
1.717591,4.3851,5.2260,-5.8779,-0.6434,0.8770,-0.2254
1.718119,4.5364,5.7806,-6.0619,-0.6434,0.8770,-0.2254
1.718578,4.5364,5.7806,-6.0619,-0.6434,0.8770,-0.2254
1.718898,4.5364,5.7806,-6.0619,-0.7997,1.0125,-0.3316
1.719302,4.5836,6.1807,-5.9975,-0.7997,1.0125,-0.3316
1.719755,4.5836,6.1807,-5.9975,-0.7997,1.0125,-0.3316
1.720075,4.5836,6.1807,-5.9975,-0.9585,1.1078,-0.4342
1.720465,4.5279,6.6077,-5.7731,-0.9585,1.1078,-0.4342
1.734389,4.5279,6.6077,-5.7731,-0.9585,1.1078,-0.4342
1.735158,4.5279,6.6077,-5.7731,-1.1063,1.1861,-0.5307
1.736022,4.6093,7.2668,-5.2474,-1.1063,1.1861,-0.5307
1.736797,4.6093,7.2668,-5.2474,-1.1063,1.1861,-0.5307
1.737226,4.6093,7.2668,-5.2474,-1.2323,1.2484,-0.6236
1.737917,4.6886,7.8418,-4.4828,-1.2323,1.2484,-0.6236
1.738384,4.6886,7.8418,-4.4828,-1.2323,1.2484,-0.6236
1.738607,4.6886,7.8418,-4.4828,-1.3373,1.2935,-0.7176
1.738916,4.7731,8.3387,-3.9008,-1.3373,1.2935,-0.7176
1.739266,4.7731,8.3387,-3.9008,-1.3373,1.2935,-0.7176
1.739507,4.7731,8.3387,-3.9008,-1.4229,1.3192,-0.8141
1.739832,4.9663,8.7226,-3.5127,-1.4229,1.3192,-0.8141
1.740187,4.9663,8.7226,-3.5127,-1.4229,1.3192,-0.8141
1.740413,4.9663,8.7226,-3.5127,-1.4949,1.3229,-0.9192
1.740745,5.3042,8.9314,-3.0520,-1.4949,1.3229,-0.9192
1.741119,5.3042,8.9314,-3.0520,-1.4949,1.3229,-0.9192
1.741346,5.3042,8.9314,-3.0520,-1.5572,1.2972,-1.0427
1.741736,5.6973,8.8781,-2.5294,-1.5572,1.2972,-1.0427
1.742075,5.6973,8.8781,-2.5294,-1.5572,1.2972,-1.0427
1.742291,5.6973,8.8781,-2.5294,-1.6097,1.2434,-1.1832
1.742589,5.8533,8.7912,-2.0073,-1.6097,1.2434,-1.1832
1.742934,5.8533,8.7912,-2.0073,-1.6097,1.2434,-1.1832
1.743147,5.8533,8.7912,-2.0073,-1.6525,1.1652,-1.3322
1.743467,6.0419,8.4185,-1.2761,-1.6525,1.1652,-1.3322
1.743794,6.0419,8.4185,-1.2761,-1.6525,1.1652,-1.3322
1.744060,6.0419,8.4185,-1.2761,-1.6855,1.0528,-1.4861
1.744409,6.2501,8.0599,-0.6174,-1.6855,1.0528,-1.4861
1.744761,6.2501,8.0599,-0.6174,-1.6855,1.0528,-1.4861
1.744984,6.2501,8.0599,-0.6174,-1.7099,0.9160,-1.6474
1.745274,6.3805,7.6648,0.0106,-1.7099,0.9160,-1.6474
1.752002,6.3805,7.6648,0.0106,-1.7099,0.9160,-1.6474
1.752636,6.3805,7.6648,0.0106,-1.7123,0.7595,-1.8074
1.753383,6.2853,7.5058,0.4921,-1.7123,0.7595,-1.8074
1.753806,6.2853,7.5058,0.4921,-1.7123,0.7595,-1.8074
1.754035,6.2853,7.5058,0.4921,-1.6989,0.6192,-1.9625
1.754718,5.9656,7.7859,0.5970,-1.6989,0.6192,-1.9625
1.755426,5.9656,7.7859,0.5970,-1.6989,0.6192,-1.9625
1.755881,5.9656,7.7859,0.5970,-1.6745,0.5116,-2.1068
1.756673,5.6288,7.9879,0.6874,-1.6745,0.5116,-2.1068
1.757502,5.6288,7.9879,0.6874,-1.6745,0.5116,-2.1068
1.758006,5.6288,7.9879,0.6874,-1.6280,0.4176,-2.2388
1.758429,5.5499,7.6978,0.9839,-1.6280,0.4176,-2.2388
1.758785,5.5499,7.6978,0.9839,-1.6280,0.4176,-2.2388
1.759009,5.5499,7.6978,0.9839,-1.5645,0.3356,-2.3682
1.759357,5.5441,7.3724,1.4014,-1.5645,0.3356,-2.3682
