
time,ax,ay,az,wx,wy,wz
0.040743,0.0000,0.0000,0.0000,0.0000,0.0000,0.0000
0.041052,0.0000,0.0000,0.0000,0.0000,0.0000,0.0000
0.041346,-0.2943,-0.1383,-1.3176,0.0000,0.0000,0.0000
0.041653,-0.2943,-0.1383,-1.3176,0.0000,0.0000,0.0000
0.041888,-0.2943,-0.1383,-1.3176,0.1264,0.3948,-0.1459
0.042113,-0.3221,-0.1532,-1.3471,0.1264,0.3948,-0.1459
0.042399,-0.3221,-0.1532,-1.3471,0.1264,0.3948,-0.1459
0.042614,-0.3221,-0.1532,-1.3471,0.1116,0.3948,-0.1459
0.042850,-0.3790,-0.1319,-1.4678,0.1116,0.3948,-0.1459
0.043073,-0.3790,-0.1319,-1.4678,0.1116,0.3948,-0.1459
0.043293,-0.3790,-0.1319,-1.4678,0.0958,0.3960,-0.1446
0.043539,-0.4029,-0.1581,-1.5005,0.0958,0.3960,-0.1446
0.043765,-0.4029,-0.1581,-1.5005,0.0958,0.3960,-0.1446
0.044036,-0.4029,-0.1581,-1.5005,0.0763,0.3972,-0.1446
0.044266,-0.3994,-0.1416,-1.5434,0.0763,0.3972,-0.1446
0.044493,-0.3994,-0.1416,-1.5434,0.0763,0.3972,-0.1446
0.044704,-0.3994,-0.1416,-1.5434,0.0604,0.3985,-0.1422
0.044911,-0.4295,-0.1425,-1.5775,0.0604,0.3985,-0.1422
0.045135,-0.4295,-0.1425,-1.5775,0.0604,0.3985,-0.1422
0.045347,-0.4295,-0.1425,-1.5775,0.0433,0.4033,-0.1397
0.045552,-0.4432,-0.1265,-1.6096,0.0433,0.4033,-0.1397
0.045776,-0.4432,-0.1265,-1.6096,0.0433,0.4033,-0.1397
0.046026,-0.4432,-0.1265,-1.6096,0.0249,0.4058,-0.1386
0.046231,-0.4808,-0.1223,-1.6759,0.0249,0.4058,-0.1386
0.046457,-0.4808,-0.1223,-1.6759,0.0249,0.4058,-0.1386
0.046675,-0.4808,-0.1223,-1.6759,0.0066,0.4107,-0.1361
0.046878,-0.4254,-0.1057,-1.7472,0.0066,0.4107,-0.1361
0.047131,-0.4254,-0.1057,-1.7472,0.0066,0.4107,-0.1361
0.047338,-0.4254,-0.1057,-1.7472,-0.0104,0.4192,-0.1337
0.047550,-0.4029,-0.1177,-1.8117,-0.0104,0.4192,-0.1337
0.047770,-0.4029,-0.1177,-1.8117,-0.0104,0.4192,-0.1337
0.048071,-0.4029,-0.1177,-1.8117,-0.0300,0.4278,-0.1337
0.048304,-0.3702,-0.1442,-1.8664,-0.0300,0.4278,-0.1337
0.048533,-0.3702,-0.1442,-1.8664,-0.0300,0.4278,-0.1337
0.048746,-0.3702,-0.1442,-1.8664,-0.0459,0.4375,-0.1324
0.048958,-0.3934,-0.1673,-1.9281,-0.0459,0.4375,-0.1324
0.049178,-0.3934,-0.1673,-1.9281,-0.0459,0.4375,-0.1324
0.049385,-0.3934,-0.1673,-1.9281,-0.0630,0.4448,-0.1324
0.049589,-0.3585,-0.2299,-1.9500,-0.0630,0.4448,-0.1324
0.049810,-0.3585,-0.2299,-1.9500,-0.0630,0.4448,-0.1324
0.050014,-0.3585,-0.2299,-1.9500,-0.0802,0.4522,-0.1337
0.050232,-0.3544,-0.2382,-1.9569,-0.0802,0.4522,-0.1337
0.050457,-0.3544,-0.2382,-1.9569,-0.0802,0.4522,-0.1337
0.050694,-0.3544,-0.2382,-1.9569,-0.0972,0.4583,-0.1349
0.050900,-0.3431,-0.3241,-1.8201,-0.0972,0.4583,-0.1349
0.051116,-0.3431,-0.3241,-1.8201,-0.0972,0.4583,-0.1349
0.051378,-0.3431,-0.3241,-1.8201,-0.1094,0.4448,-0.1374
0.051588,-0.5357,-0.3296,-1.4903,-0.1094,0.4448,-0.1374
0.078994,-0.5357,-0.3296,-1.4903,-0.1094,0.4448,-0.1374
0.079583,-0.5357,-0.3296,-1.4903,-0.1204,0.4302,-0.1361
0.080407,-0.7224,-0.2599,-1.6005,-0.1204,0.4302,-0.1361
0.081038,-0.7224,-0.2599,-1.6005,-0.1204,0.4302,-0.1361
0.081437,-0.7224,-0.2599,-1.6005,-0.1314,0.4302,-0.1337
0.081956,-0.8191,-0.1972,-1.6368,-0.1314,0.4302,-0.1337
0.082496,-0.8191,-0.1972,-1.6368,-0.1314,0.4302,-0.1337
0.082874,-0.8191,-0.1972,-1.6368,-0.1425,0.4327,-0.1312
0.083424,-0.9154,-0.1672,-1.5703,-0.1425,0.4327,-0.1312
0.084094,-0.9154,-0.1672,-1.5703,-0.1425,0.4327,-0.1312
0.084514,-0.9154,-0.1672,-1.5703,-0.1572,0.4363,-0.1264
0.085003,-0.8866,-0.1519,-1.4797,-0.1572,0.4363,-0.1264
0.085643,-0.8866,-0.1519,-1.4797,-0.1572,0.4363,-0.1264
0.086026,-0.8866,-0.1519,-1.4797,-0.1717,0.4388,-0.1264
0.086540,-0.8577,-0.1324,-1.4032,-0.1717,0.4388,-0.1264
0.087131,-0.8577,-0.1324,-1.4032,-0.1717,0.4388,-0.1264
0.087534,-0.8577,-0.1324,-1.4032,-0.1827,0.4388,-0.1264
0.088014,-0.8527,-0.0996,-1.3057,-0.1827,0.4388,-0.1264
0.088595,-0.8527,-0.0996,-1.3057,-0.1827,0.4388,-0.1264
0.088988,-0.8527,-0.0996,-1.3057,-0.1900,0.4388,-0.1251
0.089457,-0.8436,-0.0787,-1.2563,-0.1900,0.4388,-0.1251
0.090074,-0.8436,-0.0787,-1.2563,-0.1900,0.4388,-0.1251
0.090477,-0.8436,-0.0787,-1.2563,-0.1987,0.4375,-0.1239
0.091027,-0.8435,-0.0457,-1.2259,-0.1987,0.4375,-0.1239
0.091635,-0.8435,-0.0457,-1.2259,-0.1987,0.4375,-0.1239
0.092199,-0.8435,-0.0457,-1.2259,-0.2072,0.4363,-0.1226
0.092772,-0.8363,-0.0326,-1.2096,-0.2072,0.4363,-0.1226
0.093338,-0.8363,-0.0326,-1.2096,-0.2072,0.4363,-0.1226
0.093732,-0.8363,-0.0326,-1.2096,-0.2120,0.4315,-0.1214
0.094245,-0.8911,-0.0022,-1.1842,-0.2120,0.4315,-0.1214
0.094847,-0.8911,-0.0022,-1.1842,-0.2120,0.4315,-0.1214
0.095271,-0.8911,-0.0022,-1.1842,-0.2182,0.4267,-0.1202
0.095771,-0.9096,0.0889,-1.1297,-0.2182,0.4267,-0.1202
0.096426,-0.9096,0.0889,-1.1297,-0.2182,0.4267,-0.1202
0.096828,-0.9096,0.0889,-1.1297,-0.2218,0.4229,-0.1165
0.097415,-0.9092,0.1070,-1.1254,-0.2218,0.4229,-0.1165
0.097969,-0.9092,0.1070,-1.1254,-0.2218,0.4229,-0.1165
0.098193,-0.9092,0.1070,-1.1254,-0.2243,0.4205,-0.1104
0.098506,-0.8920,0.1092,-1.0659,-0.2243,0.4205,-0.1104
0.098802,-0.8920,0.1092,-1.0659,-0.2243,0.4205,-0.1104
0.099031,-0.8920,0.1092,-1.0659,-0.2243,0.4180,-0.1067
0.099264,-0.8607,0.0914,-1.0284,-0.2243,0.4180,-0.1067
0.099613,-0.8607,0.0914,-1.0284,-0.2243,0.4180,-0.1067
0.099836,-0.8607,0.0914,-1.0284,-0.2230,0.4144,-0.1031
0.100212,-0.8177,0.0885,-1.0119,-0.2230,0.4144,-0.1031
0.100544,-0.8177,0.0885,-1.0119,-0.2230,0.4144,-0.1031
0.100804,-0.8177,0.0885,-1.0119,-0.2207,0.4132,-0.0994
0.101124,-0.8006,0.0877,-0.9784,-0.2207,0.4132,-0.0994
0.101447,-0.8006,0.0877,-0.9784,-0.2207,0.4132,-0.0994
0.101673,-0.8006,0.0877,-0.9784,-0.2157,0.4132,-0.0969
0.101943,-0.8026,0.0487,-0.9720,-0.2157,0.4132,-0.0969
0.102253,-0.8026,0.0487,-0.9720,-0.2157,0.4132,-0.0969
0.102574,-0.8026,0.0487,-0.9720,-0.2133,0.4169,-0.0957
0.102870,-0.8125,0.0310,-0.9894,-0.2133,0.4169,-0.0957
0.103215,-0.8125,0.0310,-0.9894,-0.2133,0.4169,-0.0957
0.103435,-0.8125,0.0310,-0.9894,-0.2097,0.4181,-0.0932
0.103699,-0.8404,0.0209,-1.0228,-0.2097,0.4181,-0.0932
0.104055,-0.8404,0.0209,-1.0228,-0.2097,0.4181,-0.0932
0.104302,-0.8404,0.0209,-1.0228,-0.2060,0.4217,-0.0884
0.104602,-0.8672,0.0200,-1.0142,-0.2060,0.4217,-0.0884
0.104926,-0.8672,0.0200,-1.0142,-0.2060,0.4217,-0.0884
0.105157,-0.8672,0.0200,-1.0142,-0.2023,0.4254,-0.0847
0.105436,-0.8688,0.0598,-1.0434,-0.2023,0.4254,-0.0847
0.105759,-0.8688,0.0598,-1.0434,-0.2023,0.4254,-0.0847
0.105976,-0.8688,0.0598,-1.0434,-0.2010,0.4290,-0.0799
0.106201,-0.8756,0.0206,-1.0698,-0.2010,0.4290,-0.0799
0.106528,-0.8756,0.0206,-1.0698,-0.2010,0.4290,-0.0799
0.106764,-0.8756,0.0206,-1.0698,-0.1974,0.4377,-0.0762
0.107059,-0.8752,0.0433,-1.0749,-0.1974,0.4377,-0.0762
0.107384,-0.8752,0.0433,-1.0749,-0.1974,0.4377,-0.0762
0.107611,-0.8752,0.0433,-1.0749,-0.1950,0.4462,-0.0712
0.107989,-0.8775,0.1168,-1.0960,-0.1950,0.4462,-0.0712
0.115954,-0.8775,0.1168,-1.0960,-0.1950,0.4462,-0.0712
0.116246,-0.8775,0.1168,-1.0960,-0.1962,0.4559,-0.0652
0.116639,-0.8959,0.0983,-1.1610,-0.1962,0.4559,-0.0652
0.116978,-0.8959,0.0983,-1.1610,-0.1962,0.4559,-0.0652
0.117204,-0.8959,0.0983,-1.1610,-0.1962,0.4705,-0.0579
0.117535,-0.9278,0.1328,-1.1580,-0.1962,0.4705,-0.0579
0.117884,-0.9278,0.1328,-1.1580,-0.1962,0.4705,-0.0579
0.118129,-0.9278,0.1328,-1.1580,-0.1974,0.4815,-0.0506
0.118391,-0.9552,0.1721,-1.1560,-0.1974,0.4815,-0.0506
0.118698,-0.9552,0.1721,-1.1560,-0.1974,0.4815,-0.0506
0.118919,-0.9552,0.1721,-1.1560,-0.2010,0.4975,-0.0419
0.119192,-0.9655,0.1904,-1.1918,-0.2010,0.4975,-0.0419
0.119537,-0.9655,0.1904,-1.1918,-0.2010,0.4975,-0.0419
0.119769,-0.9655,0.1904,-1.1918,-0.2072,0.5122,-0.0297
0.120089,-0.9995,0.1958,-1.1916,-0.2072,0.5122,-0.0297
0.121512,-0.9995,0.1958,-1.1916,-0.2072,0.5122,-0.0297
0.121761,-0.9995,0.1958,-1.1916,-0.2157,0.5317,-0.0188
0.122064,-1.0020,0.2214,-1.2324,-0.2157,0.5317,-0.0188
0.130144,-1.0020,0.2214,-1.2324,-0.2157,0.5317,-0.0188
0.130846,-1.0020,0.2214,-1.2324,-0.2255,0.5537,-0.0066
0.131538,-0.9893,0.2101,-1.2033,-0.2255,0.5537,-0.0066
0.132309,-0.9893,0.2101,-1.2033,-0.2255,0.5537,-0.0066
0.132762,-0.9893,0.2101,-1.2033,-0.2377,0.5793,0.0069
0.133084,-0.9878,0.2209,-1.1381,-0.2377,0.5793,0.0069
0.133422,-0.9878,0.2209,-1.1381,-0.2377,0.5793,0.0069
0.133669,-0.9878,0.2209,-1.1381,-0.2500,0.6086,0.0203
0.133985,-0.9558,0.2062,-1.1238,-0.2500,0.6086,0.0203
0.134360,-0.9558,0.2062,-1.1238,-0.2500,0.6086,0.0203
0.134581,-0.9558,0.2062,-1.1238,-0.2634,0.6355,0.0312
0.134875,-0.9480,0.1845,-1.0106,-0.2634,0.6355,0.0312
0.135367,-0.9480,0.1845,-1.0106,-0.2634,0.6355,0.0312
0.135596,-0.9480,0.1845,-1.0106,-0.2756,0.6636,0.0447
0.135872,-0.9186,0.1344,-0.9294,-0.2756,0.6636,0.0447
0.136370,-0.9186,0.1344,-0.9294,-0.2756,0.6636,0.0447
0.136597,-0.9186,0.1344,-0.9294,-0.2865,0.6880,0.0532
0.136947,-0.8528,0.0916,-0.8693,-0.2865,0.6880,0.0532
0.146887,-0.8528,0.0916,-0.8693,-0.2865,0.6880,0.0532
0.147639,-0.8528,0.0916,-0.8693,-0.2988,0.7100,0.0619
0.149224,-0.7775,0.0112,-0.7302,-0.2988,0.7100,0.0619
0.150486,-0.7775,0.0112,-0.7302,-0.2988,0.7100,0.0619
0.151199,-0.7775,0.0112,-0.7302,-0.3073,0.7271,0.0654
0.151814,-0.7417,-0.0237,-0.6251,-0.3073,0.7271,0.0654
0.152442,-0.7417,-0.0237,-0.6251,-0.3073,0.7271,0.0654
0.152821,-0.7417,-0.0237,-0.6251,-0.3147,0.7381,0.0692
0.153263,-0.6745,-0.0722,-0.5201,-0.3147,0.7381,0.0692
0.153724,-0.6745,-0.0722,-0.5201,-0.3147,0.7381,0.0692
0.154059,-0.6745,-0.0722,-0.5201,-0.3208,0.7466,0.0667
0.154494,-0.6310,-0.1371,-0.4313,-0.3208,0.7466,0.0667
0.154949,-0.6310,-0.1371,-0.4313,-0.3208,0.7466,0.0667
0.155273,-0.6310,-0.1371,-0.4313,-0.3270,0.7503,0.0642
0.155701,-0.5825,-0.1944,-0.3667,-0.3270,0.7503,0.0642
0.156246,-0.5825,-0.1944,-0.3667,-0.3270,0.7503,0.0642
0.156588,-0.5825,-0.1944,-0.3667,-0.3293,0.7539,0.0594
0.157037,-0.5464,-0.2262,-0.2569,-0.3293,0.7539,0.0594
0.157513,-0.5464,-0.2262,-0.2569,-0.3293,0.7539,0.0594
0.157875,-0.5464,-0.2262,-0.2569,-0.3293,0.7527,0.0496
0.158363,-0.5160,-0.3029,-0.1666,-0.3293,0.7527,0.0496
0.158802,-0.5160,-0.3029,-0.1666,-0.3293,0.7527,0.0496
0.159133,-0.5160,-0.3029,-0.1666,-0.3281,0.7479,0.0422
0.159560,-0.5087,-0.3127,-0.0692,-0.3281,0.7479,0.0422
0.160048,-0.5087,-0.3127,-0.0692,-0.3281,0.7479,0.0422
0.160396,-0.5087,-0.3127,-0.0692,-0.3270,0.7369,0.0289
0.160797,-0.4945,-0.3331,0.0256,-0.3270,0.7369,0.0289
0.161227,-0.4945,-0.3331,0.0256,-0.3270,0.7369,0.0289
0.161596,-0.4945,-0.3331,0.0256,-0.3257,0.7221,0.0179
0.161979,-0.5090,-0.3012,0.0797,-0.3257,0.7221,0.0179
0.162477,-0.5090,-0.3012,0.0797,-0.3257,0.7221,0.0179
0.162793,-0.5090,-0.3012,0.0797,-0.3233,0.7002,0.0069
0.163160,-0.5463,-0.3030,0.1770,-0.3233,0.7002,0.0069
0.164180,-0.5463,-0.3030,0.1770,-0.3233,0.7002,0.0069
0.164522,-0.5463,-0.3030,0.1770,-0.3208,0.6758,-0.0029
0.164886,-0.5567,-0.3041,0.2333,-0.3208,0.6758,-0.0029
0.172102,-0.5567,-0.3041,0.2333,-0.3208,0.6758,-0.0029
0.172938,-0.5567,-0.3041,0.2333,-0.3160,0.6453,-0.0103
0.173821,-0.5341,-0.2924,0.2904,-0.3160,0.6453,-0.0103
0.174284,-0.5341,-0.2924,0.2904,-0.3160,0.6453,-0.0103
0.174587,-0.5341,-0.2924,0.2904,-0.3135,0.6111,-0.0176
0.174954,-0.5374,-0.2739,0.2896,-0.3135,0.6111,-0.0176
0.175304,-0.5374,-0.2739,0.2896,-0.3135,0.6111,-0.0176
0.175539,-0.5374,-0.2739,0.2896,-0.3110,0.5781,-0.0249
0.175992,-0.5494,-0.2548,0.3128,-0.3110,0.5781,-0.0249
0.176345,-0.5494,-0.2548,0.3128,-0.3110,0.5781,-0.0249
0.176582,-0.5494,-0.2548,0.3128,-0.3110,0.5451,-0.0298
0.176843,-0.5395,-0.1959,0.3331,-0.3110,0.5451,-0.0298
0.177183,-0.5395,-0.1959,0.3331,-0.3110,0.5451,-0.0298
0.177402,-0.5395,-0.1959,0.3331,-0.3098,0.5133,-0.0334
0.177677,-0.5133,-0.1871,0.3322,-0.3098,0.5133,-0.0334
0.179712,-0.5133,-0.1871,0.3322,-0.3098,0.5133,-0.0334
0.180026,-0.5133,-0.1871,0.3322,-0.3086,0.4840,-0.0346
0.180357,-0.4759,-0.1754,0.3124,-0.3086,0.4840,-0.0346
0.180678,-0.4759,-0.1754,0.3124,-0.3086,0.4840,-0.0346
0.180905,-0.4759,-0.1754,0.3124,-0.3123,0.4570,-0.0384
0.181206,-0.4580,-0.1696,0.2924,-0.3123,0.4570,-0.0384
0.182957,-0.4580,-0.1696,0.2924,-0.3123,0.4570,-0.0384
0.183208,-0.4580,-0.1696,0.2924,-0.3135,0.4340,-0.0384
0.183500,-0.4317,-0.1629,0.2554,-0.3135,0.4340,-0.0384
0.186581,-0.4317,-0.1629,0.2554,-0.3135,0.4340,-0.0384
0.186901,-0.4317,-0.1629,0.2554,-0.3147,0.4119,-0.0408
0.187147,-0.3977,-0.1233,0.1945,-0.3147,0.4119,-0.0408
0.187750,-0.3977,-0.1233,0.1945,-0.3147,0.4119,-0.0408
0.188041,-0.3977,-0.1233,0.1945,-0.3147,0.3948,-0.0408
0.188362,-0.3671,-0.1523,0.1604,-0.3147,0.3948,-0.0408
0.189988,-0.3671,-0.1523,0.1604,-0.3147,0.3948,-0.0408
0.190296,-0.3671,-0.1523,0.1604,-0.3160,0.3777,-0.0408
0.190641,-0.2992,-0.1464,0.1442,-0.3160,0.3777,-0.0408
0.192572,-0.2992,-0.1464,0.1442,-0.3160,0.3777,-0.0408
0.192935,-0.2992,-0.1464,0.1442,-0.3183,0.3630,-0.0419
0.193405,-0.2356,-0.1770,0.0958,-0.3183,0.3630,-0.0419
0.194863,-0.2356,-0.1770,0.0958,-0.3183,0.3630,-0.0419
0.195202,-0.2356,-0.1770,0.0958,-0.3196,0.3484,-0.0469
0.195638,-0.1772,-0.1652,0.0363,-0.3196,0.3484,-0.0469
0.197147,-0.1772,-0.1652,0.0363,-0.3196,0.3484,-0.0469
0.197471,-0.1772,-0.1652,0.0363,-0.3208,0.3387,-0.0506
0.197849,-0.0777,-0.2036,0.0016,-0.3208,0.3387,-0.0506
0.199587,-0.0777,-0.2036,0.0016,-0.3208,0.3387,-0.0506
0.199987,-0.0777,-0.2036,0.0016,-0.3171,0.3289,-0.0542
0.200463,-0.0179,-0.2249,0.0038,-0.3171,0.3289,-0.0542
0.204225,-0.0179,-0.2249,0.0038,-0.3171,0.3289,-0.0542
0.204899,-0.0179,-0.2249,0.0038,-0.3171,0.3202,-0.0616
0.205346,0.0164,-0.2155,-0.0140,-0.3171,0.3202,-0.0616
0.205956,0.0164,-0.2155,-0.0140,-0.3171,0.3202,-0.0616
0.206459,0.0164,-0.2155,-0.0140,-0.3183,0.3154,-0.0701
0.206867,0.0562,-0.2302,-0.0259,-0.3183,0.3154,-0.0701
0.207346,0.0562,-0.2302,-0.0259,-0.3183,0.3154,-0.0701
0.207710,0.0562,-0.2302,-0.0259,-0.3123,0.3105,-0.0786
0.208206,0.0541,-0.2501,-0.0416,-0.3123,0.3105,-0.0786
0.210282,0.0541,-0.2501,-0.0416,-0.3123,0.3105,-0.0786
0.210677,0.0541,-0.2501,-0.0416,-0.3086,0.3069,-0.0847
0.211070,0.0442,-0.2363,-0.1013,-0.3086,0.3069,-0.0847
0.211677,0.0442,-0.2363,-0.1013,-0.3086,0.3069,-0.0847
0.212262,0.0442,-0.2363,-0.1013,-0.3050,0.3069,-0.0909
0.212833,0.0084,-0.1942,-0.1316,-0.3050,0.3069,-0.0909
0.214565,0.0084,-0.1942,-0.1316,-0.3050,0.3069,-0.0909
0.214956,0.0084,-0.1942,-0.1316,-0.3013,0.3117,-0.0982
0.215488,-0.0556,-0.1601,-0.1448,-0.3013,0.3117,-0.0982
0.216177,-0.0556,-0.1601,-0.1448,-0.3013,0.3117,-0.0982
0.216585,-0.0556,-0.1601,-0.1448,-0.2963,0.3167,-0.1044
0.217101,-0.0575,-0.1544,-0.1619,-0.2963,0.3167,-0.1044
0.222077,-0.0575,-0.1544,-0.1619,-0.2963,0.3167,-0.1044
0.222721,-0.0575,-0.1544,-0.1619,-0.2903,0.3252,-0.1044
0.223335,-0.0889,-0.1210,-0.1967,-0.2903,0.3252,-0.1044
0.224084,-0.0889,-0.1210,-0.1967,-0.2903,0.3252,-0.1044
0.224638,-0.0889,-0.1210,-0.1967,-0.2878,0.3374,-0.1031
0.225237,-0.1379,-0.1019,-0.2145,-0.2878,0.3374,-0.1031
0.225784,-0.1379,-0.1019,-0.2145,-0.2878,0.3374,-0.1031
0.226186,-0.1379,-0.1019,-0.2145,-0.2805,0.3509,-0.1019
0.226678,-0.1922,-0.0741,-0.2479,-0.2805,0.3509,-0.1019
0.227246,-0.1922,-0.0741,-0.2479,-0.2805,0.3509,-0.1019
0.227668,-0.1922,-0.0741,-0.2479,-0.2720,0.3692,-0.0969
0.228241,-0.2060,-0.0239,-0.2551,-0.2720,0.3692,-0.0969
0.228753,-0.2060,-0.0239,-0.2551,-0.2720,0.3692,-0.0969
0.229134,-0.2060,-0.0239,-0.2551,-0.2634,0.3924,-0.0921
0.229653,-0.1676,-0.0497,-0.3083,-0.2634,0.3924,-0.0921
0.236993,-0.1676,-0.0497,-0.3083,-0.2634,0.3924,-0.0921
0.237430,-0.1676,-0.0497,-0.3083,-0.2548,0.4192,-0.0847
0.237946,-0.1330,-0.0439,-0.3323,-0.2548,0.4192,-0.0847
0.238431,-0.1330,-0.0439,-0.3323,-0.2548,0.4192,-0.0847
0.238803,-0.1330,-0.0439,-0.3323,-0.2463,0.4498,-0.0799
0.239257,-0.0760,-0.0592,-0.3511,-0.2463,0.4498,-0.0799
0.239757,-0.0760,-0.0592,-0.3511,-0.2463,0.4498,-0.0799
0.240239,-0.0760,-0.0592,-0.3511,-0.2292,0.4792,-0.0737
0.240778,-0.0337,-0.0830,-0.3608,-0.2292,0.4792,-0.0737
0.256201,-0.0337,-0.0830,-0.3608,-0.2292,0.4792,-0.0737
0.257015,-0.0337,-0.0830,-0.3608,-0.2170,0.5122,-0.0689
0.257821,0.0140,-0.1037,-0.3554,-0.2170,0.5122,-0.0689
0.265759,0.0140,-0.1037,-0.3554,-0.2010,0.5426,-0.0641
0.266346,0.1962,-0.1036,-0.3144,-0.2010,0.5426,-0.0641
0.266882,0.1962,-0.1036,-0.3144,-0.2010,0.5426,-0.0641
0.267270,0.2151,-0.1756,-0.3525,-0.2010,0.5426,-0.0641
0.267799,0.2151,-0.1756,-0.3525,-0.2010,0.5426,-0.0641
0.268289,0.2151,-0.1756,-0.3525,-0.1803,0.5756,-0.0604
0.268816,0.2151,-0.1756,-0.3525,-0.1607,0.6098,-0.0579
0.269303,0.2581,-0.2067,-0.3765,-0.1607,0.6098,-0.0579
0.269857,0.2581,-0.2067,-0.3765,-0.1607,0.6098,-0.0579
0.270306,0.2581,-0.2067,-0.3765,-0.1607,0.6098,-0.0579
0.270689,0.3012,-0.2566,-0.4414,-0.1607,0.6098,-0.0579
0.271316,0.3012,-0.2566,-0.4414,-0.1387,0.6476,-0.0554
0.271870,0.3342,-0.2617,-0.4635,-0.1387,0.6476,-0.0554
0.272527,0.3342,-0.2617,-0.4635,-0.1387,0.6476,-0.0554
0.272938,0.3342,-0.2617,-0.4635,-0.1167,0.6868,-0.0554
0.273909,0.4161,-0.3166,-0.5064,-0.1167,0.6868,-0.0554
0.274518,0.4161,-0.3166,-0.5064,-0.0924,0.7259,-0.0579
0.275008,0.4161,-0.3166,-0.5064,-0.0924,0.7259,-0.0579
0.275477,0.4491,-0.3616,-0.5614,-0.0924,0.7259,-0.0579
0.276156,0.4491,-0.3616,-0.5614,-0.0716,0.7637,-0.0604
0.276636,0.4491,-0.3616,-0.5614,-0.0716,0.7637,-0.0604
0.277037,0.4401,-0.3957,-0.5824,-0.0716,0.7637,-0.0604
0.277642,0.4401,-0.3957,-0.5824,-0.0716,0.7637,-0.0604
0.278040,0.4401,-0.3957,-0.5824,-0.0447,0.8041,-0.0653
0.278585,0.4401,-0.3957,-0.5824,-0.0447,0.8041,-0.0653
0.278991,0.4401,-0.3957,-0.5824,-0.0202,0.8382,-0.0714
0.279482,0.4749,-0.4044,-0.6349,-0.0202,0.8382,-0.0714
0.280233,0.4749,-0.4044,-0.6349,-0.0202,0.8382,-0.0714
0.280702,0.4749,-0.4044,-0.6349,0.0029,0.8749,-0.0786
0.281169,0.5384,-0.4365,-0.6657,0.0029,0.8749,-0.0786
0.281721,0.5384,-0.4365,-0.6657,0.0029,0.8749,-0.0786
0.282081,0.5384,-0.4365,-0.6657,0.0274,0.9079,-0.0896
0.282652,0.5578,-0.4889,-0.6913,0.0274,0.9079,-0.0896
0.283290,0.5578,-0.4889,-0.6913,0.0274,0.9079,-0.0896
0.283666,0.5578,-0.4889,-0.6913,0.0469,0.9372,-0.1006
0.284246,0.6187,-0.4859,-0.7685,0.0469,0.9372,-0.1006
0.284819,0.6187,-0.4859,-0.7685,0.0469,0.9372,-0.1006
0.285217,0.6187,-0.4859,-0.7685,0.0676,0.9654,-0.1129
0.285733,0.6685,-0.5103,-0.8433,0.0676,0.9654,-0.1129
0.286301,0.6685,-0.5103,-0.8433,0.0676,0.9654,-0.1129
0.286727,0.6685,-0.5103,-0.8433,0.0811,0.9910,-0.1287
0.287212,0.7229,-0.5570,-0.8960,0.0811,0.9910,-0.1287
0.287801,0.7229,-0.5570,-0.8960,0.0811,0.9910,-0.1287
0.288272,0.7229,-0.5570,-0.8960,0.0958,1.0117,-0.1434
0.288774,0.7329,-0.5958,-0.9375,0.0958,1.0117,-0.1434
0.289374,0.7329,-0.5958,-0.9375,0.0958,1.0117,-0.1434
0.289787,0.7329,-0.5958,-0.9375,0.1044,1.0325,-0.1605
0.290407,0.7963,-0.6088,-1.0257,0.1044,1.0325,-0.1605
0.291003,0.7963,-0.6088,-1.0257,0.1044,1.0325,-0.1605
0.291400,0.7963,-0.6088,-1.0257,0.1116,1.0472,-0.1789
0.291878,0.8294,-0.6339,-1.0737,0.1116,1.0472,-0.1789
0.292794,0.8294,-0.6339,-1.0737,0.1116,1.0472,-0.1789
0.293742,0.8294,-0.6339,-1.0737,0.1154,1.0630,-0.1984
0.294350,0.8498,-0.6709,-1.1216,0.1154,1.0630,-0.1984
0.294946,0.8498,-0.6709,-1.1216,0.1154,1.0630,-0.1984
0.295315,0.8498,-0.6709,-1.1216,0.1166,1.0729,-0.2192
0.295753,0.8716,-0.7409,-1.1683,0.1166,1.0729,-0.2192
0.296403,0.8716,-0.7409,-1.1683,0.1166,1.0729,-0.2192
0.296798,0.8716,-0.7409,-1.1683,0.1154,1.0827,-0.2423
0.297297,0.8859,-0.7466,-1.1921,0.1154,1.0827,-0.2423
0.297879,0.8859,-0.7466,-1.1921,0.1154,1.0827,-0.2423
0.298248,0.8859,-0.7466,-1.1921,0.1116,1.0900,-0.2632
0.298738,0.9154,-0.7883,-1.2397,0.1116,1.0900,-0.2632
0.299351,0.9154,-0.7883,-1.2397,0.1116,1.0900,-0.2632
0.299775,0.9154,-0.7883,-1.2397,0.1068,1.0949,-0.2863
0.300542,0.9451,-0.8296,-1.2653,0.1068,1.0949,-0.2863
0.301351,0.9451,-0.8296,-1.2653,0.1068,1.0949,-0.2863
0.301801,0.9451,-0.8296,-1.2653,0.0994,1.0985,-0.3095
0.302385,0.9362,-0.8556,-1.2928,0.0994,1.0985,-0.3095
0.303033,0.9362,-0.8556,-1.2928,0.0994,1.0985,-0.3095
0.303442,0.9362,-0.8556,-1.2928,0.0909,1.1022,-0.3327
0.304001,0.9255,-0.8814,-1.3143,0.0909,1.1022,-0.3327
0.304761,0.9255,-0.8814,-1.3143,0.0909,1.1022,-0.3327
0.305246,0.9255,-0.8814,-1.3143,0.0848,1.1047,-0.3535
0.305905,0.9009,-0.8739,-1.3417,0.0848,1.1047,-0.3535
0.306820,0.9009,-0.8739,-1.3417,0.0848,1.1047,-0.3535
0.307363,0.9009,-0.8739,-1.3417,0.0774,1.1107,-0.3767
0.308048,0.8648,-0.8831,-1.3550,0.0774,1.1107,-0.3767
0.308722,0.8648,-0.8831,-1.3550,0.0774,1.1107,-0.3767
0.309129,0.8648,-0.8831,-1.3550,0.0726,1.1157,-0.3975
0.309687,0.8289,-0.8911,-1.3814,0.0726,1.1157,-0.3975
0.310092,0.8289,-0.8911,-1.3814,0.0726,1.1157,-0.3975
0.310310,0.8289,-0.8911,-1.3814,0.0676,1.1267,-0.4170
0.310595,0.8194,-0.9138,-1.4015,0.0676,1.1267,-0.4170
0.310948,0.8194,-0.9138,-1.4015,0.0676,1.1267,-0.4170
0.311182,0.8194,-0.9138,-1.4015,0.0653,1.1389,-0.4366
0.311456,0.8223,-0.8933,-1.4387,0.0653,1.1389,-0.4366
0.311835,0.8223,-0.8933,-1.4387,0.0653,1.1389,-0.4366
0.312127,0.8223,-0.8933,-1.4387,0.0641,1.1584,-0.4573
0.312432,0.8517,-0.9057,-1.5235,0.0641,1.1584,-0.4573
0.312796,0.8517,-0.9057,-1.5235,0.0641,1.1584,-0.4573
0.313021,0.8517,-0.9057,-1.5235,0.0628,1.1817,-0.4793
0.313317,0.8608,-0.9160,-1.5412,0.0628,1.1817,-0.4793
0.313664,0.8608,-0.9160,-1.5412,0.0628,1.1817,-0.4793
0.313885,0.8608,-0.9160,-1.5412,0.0641,1.2085,-0.5001
0.314164,0.8827,-0.9243,-1.6036,0.0641,1.2085,-0.5001
0.325016,0.8827,-0.9243,-1.6036,0.0641,1.2085,-0.5001
0.325603,0.8827,-0.9243,-1.6036,0.0689,1.2402,-0.5209
0.326223,0.8933,-0.9224,-1.6259,0.0689,1.2402,-0.5209
0.326900,0.8933,-0.9224,-1.6259,0.0689,1.2402,-0.5209
0.327347,0.8933,-0.9224,-1.6259,0.0751,1.2745,-0.5391
0.327969,0.8897,-0.9346,-1.6766,0.0751,1.2745,-0.5391
0.328677,0.8897,-0.9346,-1.6766,0.0751,1.2745,-0.5391
0.328910,0.8897,-0.9346,-1.6766,0.0836,1.3111,-0.5576
0.329217,0.9002,-0.9718,-1.7482,0.0836,1.3111,-0.5576
0.329593,0.9002,-0.9718,-1.7482,0.0836,1.3111,-0.5576
0.329830,0.9002,-0.9718,-1.7482,0.0934,1.3538,-0.5796
0.330142,0.9367,-1.0221,-1.7872,0.0934,1.3538,-0.5796
0.330479,0.9367,-1.0221,-1.7872,0.0934,1.3538,-0.5796
0.330691,0.9367,-1.0221,-1.7872,0.1031,1.3978,-0.6016
0.330947,0.9542,-1.0234,-1.8079,0.1031,1.3978,-0.6016
0.331276,0.9542,-1.0234,-1.8079,0.1031,1.3978,-0.6016
0.331493,0.9542,-1.0234,-1.8079,0.1166,1.4406,-0.6211
0.331810,0.9788,-1.0769,-1.8611,0.1166,1.4406,-0.6211
0.332212,0.9788,-1.0769,-1.8611,0.1166,1.4406,-0.6211
0.332545,0.9788,-1.0769,-1.8611,0.1324,1.4834,-0.6406
0.332916,0.9904,-1.1034,-1.8958,0.1324,1.4834,-0.6406
0.333268,0.9904,-1.1034,-1.8958,0.1324,1.4834,-0.6406
0.333495,0.9904,-1.1034,-1.8958,0.1496,1.5201,-0.6589
0.333804,1.0128,-1.1532,-1.9412,0.1496,1.5201,-0.6589
0.338839,1.0128,-1.1532,-1.9412,0.1679,1.5603,-0.6773
0.340063,1.1096,-1.1874,-1.9672,0.1679,1.5603,-0.6773
0.340554,1.1096,-1.1874,-1.9672,0.1679,1.5603,-0.6773
0.340788,1.1147,-1.1844,-2.0372,0.1679,1.5603,-0.6773
0.341142,1.1147,-1.1844,-2.0372,0.1679,1.5603,-0.6773
0.341363,1.1147,-1.1844,-2.0372,0.1862,1.6006,-0.6969
0.343248,1.1147,-1.1844,-2.0372,0.1862,1.6006,-0.6969
0.343775,1.1147,-1.1844,-2.0372,0.2057,1.6446,-0.7151
0.344475,1.1055,-1.1717,-2.0471,0.2057,1.6446,-0.7151
0.345055,1.0536,-1.1438,-2.0951,0.2057,1.6446,-0.7151
0.345611,1.0536,-1.1438,-2.0951,0.2057,1.6446,-0.7151
0.345967,1.0536,-1.1438,-2.0951,0.2254,1.6886,-0.7336
0.346518,1.0536,-1.1438,-2.0951,0.2254,1.6886,-0.7336
0.346908,1.0536,-1.1438,-2.0951,0.2449,1.7337,-0.7519
0.347426,0.9751,-1.1147,-2.1307,0.2449,1.7337,-0.7519
0.348071,0.9751,-1.1147,-2.1307,0.2449,1.7337,-0.7519
0.348465,0.9751,-1.1147,-2.1307,0.2657,1.7790,-0.7689
0.348956,0.9217,-1.0451,-2.1637,0.2657,1.7790,-0.7689
0.349501,0.9217,-1.0451,-2.1637,0.2657,1.7790,-0.7689
0.349866,0.9217,-1.0451,-2.1637,0.2790,1.8267,-0.7849
0.350402,0.8794,-0.9834,-2.2259,0.2790,1.8267,-0.7849
0.358072,0.8794,-0.9834,-2.2259,0.2790,1.8267,-0.7849
0.358498,0.8794,-0.9834,-2.2259,0.2912,1.8730,-0.7994
0.359107,0.7883,-0.9599,-2.2787,0.2912,1.8730,-0.7994
0.359682,0.7883,-0.9599,-2.2787,0.2912,1.8730,-0.7994
0.360084,0.7883,-0.9599,-2.2787,0.2974,1.9183,-0.8104
0.360586,0.7210,-0.9105,-2.3668,0.2974,1.9183,-0.8104
0.361152,0.7210,-0.9105,-2.3668,0.2974,1.9183,-0.8104
0.361512,0.7210,-0.9105,-2.3668,0.2974,1.9660,-0.8214
0.361983,0.6890,-0.8768,-2.4114,0.2974,1.9660,-0.8214
0.362544,0.6890,-0.8768,-2.4114,0.2974,1.9660,-0.8214
0.362925,0.6890,-0.8768,-2.4114,0.2937,2.0112,-0.8312
0.363470,0.6268,-0.8461,-2.4795,0.2937,2.0112,-0.8312
0.364084,0.6268,-0.8461,-2.4795,0.2937,2.0112,-0.8312
0.364455,0.6268,-0.8461,-2.4795,0.2827,2.0540,-0.8397
0.365026,0.6276,-0.8767,-2.5280,0.2827,2.0540,-0.8397
0.365625,0.6276,-0.8767,-2.5280,0.2827,2.0540,-0.8397
0.365995,0.6276,-0.8767,-2.5280,0.2669,2.0943,-0.8482
0.366497,0.6002,-0.8810,-2.5662,0.2669,2.0943,-0.8482
0.366980,0.6002,-0.8810,-2.5662,0.2669,2.0943,-0.8482
0.367410,0.6002,-0.8810,-2.5662,0.2485,2.1346,-0.8580
0.367937,0.6196,-0.9736,-2.5969,0.2485,2.1346,-0.8580
0.368558,0.6196,-0.9736,-2.5969,0.2485,2.1346,-0.8580
0.368905,0.6196,-0.9736,-2.5969,0.2265,2.1676,-0.8679
0.369967,0.6088,-1.0306,-2.6072,0.2265,2.1676,-0.8679
0.371214,0.6088,-1.0306,-2.6072,0.2265,2.1676,-0.8679
0.371750,0.6088,-1.0306,-2.6072,0.2021,2.1956,-0.8789
0.372506,0.6346,-1.1028,-2.5823,0.2021,2.1956,-0.8789
0.373271,0.6346,-1.1028,-2.5823,0.2021,2.1956,-0.8789
0.373816,0.6346,-1.1028,-2.5823,0.1777,2.2201,-0.8922
0.374464,0.6527,-1.1661,-2.5470,0.1777,2.2201,-0.8922
0.375192,0.6527,-1.1661,-2.5470,0.1777,2.2201,-0.8922
0.375684,0.6527,-1.1661,-2.5470,0.1508,2.2384,-0.9082
0.376370,0.7053,-1.2378,-2.5195,0.1508,2.2384,-0.9082
0.379804,0.7053,-1.2378,-2.5195,0.1508,2.2384,-0.9082
0.380918,0.7053,-1.2378,-2.5195,0.1264,2.2531,-0.9277
0.381808,0.7751,-1.2756,-2.4700,0.1264,2.2531,-0.9277
0.382764,0.7751,-1.2756,-2.4700,0.1264,2.2531,-0.9277
0.383403,0.7751,-1.2756,-2.4700,0.0994,2.2616,-0.9497
0.384243,0.9172,-1.3394,-2.3741,0.0994,2.2616,-0.9497
0.385066,0.9343,-1.3964,-2.3501,0.0994,2.2616,-0.9497
0.385792,0.9343,-1.3964,-2.3501,0.0994,2.2616,-0.9497
0.386364,0.9343,-1.3964,-2.3501,0.0751,2.2678,-0.9754
0.387066,0.9343,-1.3964,-2.3501,0.0751,2.2678,-0.9754
0.387631,0.9343,-1.3964,-2.3501,0.0531,2.2726,-1.0010
0.388350,1.0305,-1.4155,-2.2639,0.0531,2.2726,-1.0010
0.389037,1.0305,-1.4155,-2.2639,0.0531,2.2726,-1.0010
0.389429,1.0305,-1.4155,-2.2639,0.0298,2.2726,-1.0303
0.389866,1.1099,-1.4908,-2.2138,0.0298,2.2726,-1.0303
0.390342,1.1099,-1.4908,-2.2138,0.0298,2.2726,-1.0303
0.390694,1.1099,-1.4908,-2.2138,0.0066,2.2726,-1.0645
0.391127,1.1971,-1.4881,-2.1704,0.0066,2.2726,-1.0645
0.391588,1.1971,-1.4881,-2.1704,0.0066,2.2726,-1.0645
0.391975,1.1971,-1.4881,-2.1704,-0.0154,2.2726,-1.0988
0.392570,1.2235,-1.4915,-2.1419,-0.0154,2.2726,-1.0988
0.401676,1.2235,-1.4915,-2.1419,-0.0154,2.2726,-1.0988
0.401984,1.2235,-1.4915,-2.1419,-0.0349,2.2751,-1.1342
0.402371,1.2511,-1.5041,-2.1122,-0.0349,2.2751,-1.1342
0.402806,1.2511,-1.5041,-2.1122,-0.0349,2.2751,-1.1342
0.403046,1.2511,-1.5041,-2.1122,-0.0544,2.2787,-1.1696
0.403373,1.2587,-1.4868,-2.0703,-0.0544,2.2787,-1.1696
0.403728,1.2587,-1.4868,-2.0703,-0.0544,2.2787,-1.1696
0.404004,1.2587,-1.4868,-2.0703,-0.0740,2.2836,-1.2050
0.404333,1.3527,-1.4835,-2.0350,-0.0740,2.2836,-1.2050
0.404661,1.2997,-1.5384,-2.0830,-0.0740,2.2836,-1.2050
0.404986,1.2997,-1.5384,-2.0830,-0.0740,2.2836,-1.2050
0.405253,1.2997,-1.5384,-2.0830,-0.0935,2.2921,-1.2418
0.405587,1.2997,-1.5384,-2.0830,-0.0935,2.2921,-1.2418
0.405806,1.2997,-1.5384,-2.0830,-0.1107,2.3031,-1.2783
0.406123,1.3381,-1.5406,-2.1083,-0.1107,2.3031,-1.2783
0.406551,1.3381,-1.5406,-2.1083,-0.1107,2.3031,-1.2783
0.406788,1.3381,-1.5406,-2.1083,-0.1290,2.3214,-1.3163
0.407102,1.7690,-2.2858,-2.6644,-0.1290,2.3214,-1.3163
0.409930,1.7690,-2.2858,-2.6644,-0.1290,2.3214,-1.3163
0.410370,1.7690,-2.2858,-2.6644,-0.1669,2.3984,-1.3883
0.410825,2.8237,-3.9365,-4.0934,-0.1669,2.3984,-1.3883
0.411177,2.8237,-3.9365,-4.0934,-0.1669,2.3984,-1.3883
0.411402,2.8237,-3.9365,-4.0934,-0.2243,2.4889,-1.4849
0.411694,2.3827,-3.2558,-3.6918,-0.2243,2.4889,-1.4849
0.414797,2.3827,-3.2558,-3.6918,-0.2243,2.4889,-1.4849
0.415062,2.3827,-3.2558,-3.6918,-0.2805,2.5352,-1.5679
0.415406,1.9708,-2.5102,-3.2545,-0.2805,2.5352,-1.5679
0.417692,1.9708,-2.5102,-3.2545,-0.2805,2.5352,-1.5679
0.418093,1.9708,-2.5102,-3.2545,-0.3367,2.5560,-1.6339
0.418491,1.7086,-1.7845,-2.8310,-0.3367,2.5560,-1.6339
0.418858,1.7086,-1.7845,-2.8310,-0.3367,2.5560,-1.6339
0.419103,1.7086,-1.7845,-2.8310,-0.3893,2.5719,-1.6864
0.419518,1.4077,-1.1561,-2.5322,-0.3893,2.5719,-1.6864
0.419880,1.4077,-1.1561,-2.5322,-0.3893,2.5719,-1.6864
0.420165,1.4077,-1.1561,-2.5322,-0.4418,2.5877,-1.7340
0.420488,1.5073,-0.6771,-2.5341,-0.4418,2.5877,-1.7340
0.422140,1.5073,-0.6771,-2.5341,-0.4418,2.5877,-1.7340
0.422380,1.5073,-0.6771,-2.5341,-0.4979,2.6037,-1.7927
0.422732,2.0509,-0.1975,-2.6988,-0.4979,2.6037,-1.7927
0.424821,2.0509,-0.1975,-2.6988,-0.4979,2.6037,-1.7927
0.425274,2.0509,-0.1975,-2.6988,-0.5591,2.6220,-1.8611
0.425910,2.0911,-0.3515,-2.8832,-0.5591,2.6220,-1.8611
0.428109,2.0911,-0.3515,-2.8832,-0.5591,2.6220,-1.8611
0.428584,2.0911,-0.3515,-2.8832,-0.6201,2.6489,-1.9258
0.429231,1.8981,-0.5434,-2.9083,-0.6201,2.6489,-1.9258
0.429870,1.8981,-0.5434,-2.9083,-0.6201,2.6489,-1.9258
0.430259,1.8981,-0.5434,-2.9083,-0.6787,2.6770,-1.9784
0.430832,1.7146,-0.6971,-2.8538,-0.6787,2.6770,-1.9784
0.432904,1.7146,-0.6971,-2.8538,-0.6787,2.6770,-1.9784
0.433320,1.7146,-0.6971,-2.8538,-0.7314,2.7002,-2.0175
0.433924,1.4695,-0.8251,-2.7130,-0.7314,2.7002,-2.0175
0.434533,1.4695,-0.8251,-2.7130,-0.7314,2.7002,-2.0175
0.434917,1.4695,-0.8251,-2.7130,-0.7789,2.7185,-2.0516
0.435485,1.2397,-0.9684,-2.5866,-0.7789,2.7185,-2.0516
0.438383,1.2397,-0.9684,-2.5866,-0.7789,2.7185,-2.0516
0.438975,1.2397,-0.9684,-2.5866,-0.8242,2.7357,-2.0761
0.439777,0.9711,-1.1251,-2.3898,-0.8242,2.7357,-2.0761
0.440620,0.9711,-1.1251,-2.3898,-0.8242,2.7357,-2.0761
0.441099,0.9711,-1.1251,-2.3898,-0.8657,2.7540,-2.0921
0.441671,0.7628,-1.2963,-2.3115,-0.8657,2.7540,-2.0921
0.442275,0.7628,-1.2963,-2.3115,-0.8657,2.7540,-2.0921
0.442688,0.7628,-1.2963,-2.3115,-0.9060,2.7772,-2.1066
0.443269,0.5618,-1.4560,-2.2675,-0.9060,2.7772,-2.1066
0.443865,0.5618,-1.4560,-2.2675,-0.9060,2.7772,-2.1066
0.444334,0.5618,-1.4560,-2.2675,-0.9475,2.8040,-2.1176
0.444904,0.4980,-1.6363,-2.2198,-0.9475,2.8040,-2.1176
0.449765,0.4980,-1.6363,-2.2198,-0.9475,2.8040,-2.1176
0.450220,0.4980,-1.6363,-2.2198,-0.9890,2.8383,-2.1274
0.450840,0.4876,-1.8463,-2.2046,-0.9890,2.8383,-2.1274
0.451470,0.4876,-1.8463,-2.2046,-0.9890,2.8383,-2.1274
0.452034,0.4876,-1.8463,-2.2046,-1.0282,2.8725,-2.1384
0.452669,0.4525,-2.0516,-2.1164,-1.0282,2.8725,-2.1384
0.453260,0.4525,-2.0516,-2.1164,-1.0282,2.8725,-2.1384
0.453657,0.4525,-2.0516,-2.1164,-1.0685,2.9091,-2.1531
0.454233,0.4588,-2.1875,-1.9785,-1.0685,2.9091,-2.1531
0.454776,0.4588,-2.1875,-1.9785,-1.0685,2.9091,-2.1531
0.455153,0.4588,-2.1875,-1.9785,-1.1051,2.9433,-2.1689
0.455677,0.4514,-2.2487,-1.8288,-1.1051,2.9433,-2.1689
0.456339,0.4514,-2.2487,-1.8288,-1.1051,2.9433,-2.1689
0.456732,0.4514,-2.2487,-1.8288,-1.1443,2.9776,-2.1874
0.457324,0.3934,-2.3332,-1.6262,-1.1443,2.9776,-2.1874
0.457926,0.3934,-2.3332,-1.6262,-1.1443,2.9776,-2.1874
0.458304,0.3934,-2.3332,-1.6262,-1.1796,3.0020,-2.2093
0.458828,0.3935,-2.3766,-1.4310,-1.1796,3.0020,-2.2093
0.461742,0.3935,-2.3766,-1.4310,-1.1796,3.0020,-2.2093
0.463003,0.3935,-2.3766,-1.4310,-1.2163,3.0203,-2.2349
0.463725,0.4036,-2.3992,-1.2821,-1.2163,3.0203,-2.2349
0.464451,0.4036,-2.3992,-1.2821,-1.2163,3.0203,-2.2349
0.464901,0.4036,-2.3992,-1.2821,-1.2518,3.0338,-2.2631
0.465609,0.4205,-2.4386,-1.1156,-1.2518,3.0338,-2.2631
0.466234,0.4205,-2.4386,-1.1156,-1.2518,3.0338,-2.2631
0.466706,0.4205,-2.4386,-1.1156,-1.2871,3.0411,-2.2972
0.467565,0.4151,-2.4463,-0.9128,-1.2871,3.0411,-2.2972
0.468352,0.4151,-2.4463,-0.9128,-1.2871,3.0411,-2.2972
0.468797,0.4151,-2.4463,-0.9128,-1.3226,3.0349,-2.3314
0.469373,0.4259,-2.3871,-0.6719,-1.3226,3.0349,-2.3314
0.469932,0.4259,-2.3871,-0.6719,-1.3226,3.0349,-2.3314
0.470282,0.4259,-2.3871,-0.6719,-1.3569,3.0166,-2.3669
0.470775,0.3969,-2.2959,-0.4889,-1.3569,3.0166,-2.3669
0.481485,0.3969,-2.2959,-0.4889,-1.3569,3.0166,-2.3669
0.481956,0.3969,-2.2959,-0.4889,-1.3922,2.9861,-2.4035
0.482570,0.3576,-2.1988,-0.2894,-1.3922,2.9861,-2.4035
0.483138,0.3576,-2.1988,-0.2894,-1.3922,2.9861,-2.4035
0.483485,0.3576,-2.1988,-0.2894,-1.4277,2.9384,-2.4390
0.484049,0.2908,-2.0917,-0.1374,-1.4277,2.9384,-2.4390
0.484588,0.2908,-2.0917,-0.1374,-1.4277,2.9384,-2.4390
0.484962,0.2908,-2.0917,-0.1374,-1.4667,2.8786,-2.4757
0.485504,0.2172,-1.9380,-0.0094,-1.4667,2.8786,-2.4757
0.486047,0.2172,-1.9380,-0.0094,-1.4667,2.8786,-2.4757
0.486389,0.2172,-1.9380,-0.0094,-1.5059,2.8101,-2.5087
0.486887,0.1278,-1.8168,0.1127,-1.5059,2.8101,-2.5087
0.487446,0.1278,-1.8168,0.1127,-1.5059,2.8101,-2.5087
0.487814,0.1278,-1.8168,0.1127,-1.5499,2.7320,-2.5405
0.488424,0.0215,-1.6926,0.1569,-1.5499,2.7320,-2.5405
0.489016,0.0215,-1.6926,0.1569,-1.5499,2.7320,-2.5405
0.489400,0.0215,-1.6926,0.1569,-1.5950,2.6502,-2.5685
0.489907,-0.1129,-1.5815,0.2408,-1.5950,2.6502,-2.5685
0.490435,-0.1129,-1.5815,0.2408,-1.5950,2.6502,-2.5685
0.490797,-0.1129,-1.5815,0.2408,-1.6415,2.5657,-2.5930
0.491320,-0.2334,-1.4742,0.3137,-1.6415,2.5657,-2.5930
0.492281,-0.2334,-1.4742,0.3137,-1.6415,2.5657,-2.5930
0.492624,-0.2334,-1.4742,0.3137,-1.6892,2.4791,-2.6125
0.493174,-0.3861,-1.3527,0.3944,-1.6892,2.4791,-2.6125
0.493739,-0.3861,-1.3527,0.3944,-1.6892,2.4791,-2.6125
0.494091,-0.3861,-1.3527,0.3944,-1.7392,2.3911,-2.6283
0.494588,-0.5352,-1.2448,0.4797,-1.7392,2.3911,-2.6283
0.495131,-0.5352,-1.2448,0.4797,-1.7392,2.3911,-2.6283
0.495508,-0.5352,-1.2448,0.4797,-1.7880,2.3020,-2.6405
0.496104,-0.7114,-1.1166,0.5782,-1.7880,2.3020,-2.6405
0.496598,-0.7114,-1.1166,0.5782,-1.7880,2.3020,-2.6405
0.496958,-0.7114,-1.1166,0.5782,-1.8358,2.2153,-2.6466
0.497478,-0.8856,-1.0372,0.6451,-1.8358,2.2153,-2.6466
0.498018,-0.8856,-1.0372,0.6451,-1.8358,2.2153,-2.6466
0.498404,-0.8856,-1.0372,0.6451,-1.8833,2.1383,-2.6466
0.498901,-1.0428,-0.9414,0.6298,-1.8833,2.1383,-2.6466
0.501935,-1.0428,-0.9414,0.6298,-1.8833,2.1383,-2.6466
0.502661,-1.0428,-0.9414,0.6298,-1.9298,2.0685,-2.6381
0.503411,-1.2207,-0.8165,0.6509,-1.9298,2.0685,-2.6381
0.504189,-1.2207,-0.8165,0.6509,-1.9298,2.0685,-2.6381
0.504658,-1.2207,-0.8165,0.6509,-1.9726,2.0027,-2.6258
0.505281,-1.3613,-0.6897,0.6897,-1.9726,2.0027,-2.6258
0.505673,-1.3613,-0.6897,0.6897,-1.9726,2.0027,-2.6258
0.505920,-1.3613,-0.6897,0.6897,-2.0166,1.9464,-2.6038
0.506250,-1.4755,-0.6414,0.6551,-2.0166,1.9464,-2.6038
0.510977,-1.4755,-0.6414,0.6551,-2.0166,1.9464,-2.6038
0.511232,-1.4755,-0.6414,0.6551,-2.0581,1.9037,-2.5795
0.511591,-1.6010,-0.6160,0.6505,-2.0581,1.9037,-2.5795
0.511963,-1.6010,-0.6160,0.6505,-2.0581,1.9037,-2.5795
0.512203,-1.6010,-0.6160,0.6505,-2.1009,1.8682,-2.5490
0.512538,-1.7098,-0.5584,0.6730,-2.1009,1.8682,-2.5490
0.512879,-1.7098,-0.5584,0.6730,-2.1009,1.8682,-2.5490
0.513094,-1.7098,-0.5584,0.6730,-2.1374,1.8414,-2.5098
0.513414,-1.7465,-0.5788,0.6765,-2.1374,1.8414,-2.5098
0.516536,-1.7465,-0.5788,0.6765,-2.1374,1.8414,-2.5098
0.517792,-1.7465,-0.5788,0.6765,-2.1692,1.8206,-2.4658
0.518587,-1.8005,-0.6494,0.7442,-2.1692,1.8206,-2.4658
0.519007,-1.8005,-0.6494,0.7442,-2.1692,1.8206,-2.4658
0.519326,-1.8005,-0.6494,0.7442,-2.1986,1.8072,-2.4207
0.519812,-1.7952,-0.7350,0.7712,-2.1986,1.8072,-2.4207
0.520418,-1.7952,-0.7350,0.7712,-2.1986,1.8072,-2.4207
0.520746,-1.7952,-0.7350,0.7712,-2.2230,1.7962,-2.3742
0.521234,-1.7408,-0.8157,0.8094,-2.2230,1.7962,-2.3742
0.524338,-1.7408,-0.8157,0.8094,-2.2230,1.7962,-2.3742
0.524744,-1.7408,-0.8157,0.8094,-2.2414,1.7889,-2.3314
0.525254,-1.6613,-0.9325,0.8639,-2.2414,1.7889,-2.3314
0.525773,-1.6613,-0.9325,0.8639,-2.2414,1.7889,-2.3314
0.526112,-1.6613,-0.9325,0.8639,-2.2572,1.7901,-2.2887
0.526623,-1.4983,-1.0856,0.8949,-2.2572,1.7901,-2.2887
0.527167,-1.4983,-1.0856,0.8949,-2.2572,1.7901,-2.2887
0.527495,-1.4983,-1.0856,0.8949,-2.2645,1.7924,-2.2520
0.528138,-1.2833,-1.2475,0.9453,-2.2645,1.7924,-2.2520
0.530219,-1.2833,-1.2475,0.9453,-2.2645,1.7924,-2.2520
0.530558,-1.2833,-1.2475,0.9453,-2.2694,1.7924,-2.2179
0.531036,-1.0810,-1.3555,1.0009,-2.2694,1.7924,-2.2179
0.531572,-1.0810,-1.3555,1.0009,-2.2694,1.7924,-2.2179
0.531966,-1.0810,-1.3555,1.0009,-2.2657,1.7962,-2.1897
0.532445,-0.7986,-1.5155,1.0447,-2.2657,1.7962,-2.1897
0.535751,-0.7986,-1.5155,1.0447,-2.2657,1.7962,-2.1897
0.536476,-0.7986,-1.5155,1.0447,-2.2524,1.8022,-2.1653
0.537200,-0.5192,-1.6083,1.0138,-2.2524,1.8022,-2.1653
0.537878,-0.5192,-1.6083,1.0138,-2.2524,1.8022,-2.1653
0.538321,-0.5192,-1.6083,1.0138,-2.2364,1.8132,-2.1482
0.539060,-0.1698,-1.6563,0.9409,-2.2364,1.8132,-2.1482
0.539733,-0.1698,-1.6563,0.9409,-2.2364,1.8132,-2.1482
0.540244,-0.1698,-1.6563,0.9409,-2.2144,1.8292,-2.1384
0.540886,0.0974,-1.7043,0.8941,-2.2144,1.8292,-2.1384
0.541547,0.0974,-1.7043,0.8941,-2.2144,1.8292,-2.1384
0.541998,0.0974,-1.7043,0.8941,-2.1889,1.8547,-2.1372
0.542728,0.3525,-1.7036,0.8784,-2.1889,1.8547,-2.1372
0.543401,0.3525,-1.7036,0.8784,-2.1889,1.8547,-2.1372
0.543849,0.3525,-1.7036,0.8784,-2.1559,1.8902,-2.1409
0.544583,0.5452,-1.6451,0.8607,-2.1559,1.8902,-2.1409
0.547510,0.5452,-1.6451,0.8607,-2.1559,1.8902,-2.1409
0.547844,0.5452,-1.6451,0.8607,-2.1216,1.9354,-2.1531
0.548402,0.6852,-1.6292,0.8863,-2.1216,1.9354,-2.1531
0.548909,0.6852,-1.6292,0.8863,-2.1216,1.9354,-2.1531
0.549222,0.6852,-1.6292,0.8863,-2.0813,1.9867,-2.1702
0.549645,0.8073,-1.5498,0.8762,-2.0813,1.9867,-2.1702
0.550117,0.8073,-1.5498,0.8762,-2.0813,1.9867,-2.1702
0.550417,0.8073,-1.5498,0.8762,-2.0386,2.0454,-2.1922
0.550877,0.8383,-1.4794,0.9191,-2.0386,2.0454,-2.1922
0.552930,0.8383,-1.4794,0.9191,-2.0386,2.0454,-2.1922
0.553372,0.8383,-1.4794,0.9191,-1.9946,2.0980,-2.2166
0.553878,0.7932,-1.3793,1.0147,-1.9946,2.0980,-2.2166
0.556270,0.7932,-1.3793,1.0147,-1.9946,2.0980,-2.2166
0.556600,0.7932,-1.3793,1.0147,-1.9481,2.1505,-2.2422
0.557103,0.7894,-1.3146,1.0777,-1.9481,2.1505,-2.2422
0.557596,0.7894,-1.3146,1.0777,-1.9481,2.1505,-2.2422
0.557902,0.7894,-1.3146,1.0777,-1.8993,2.2018,-2.2667
0.558356,0.7550,-1.2392,1.1328,-1.8993,2.2018,-2.2667
0.559584,0.7550,-1.2392,1.1328,-1.8993,2.2018,-2.2667
0.559934,0.7550,-1.2392,1.1328,-1.8503,2.2555,-2.2924
0.560438,0.6090,-1.1760,1.2350,-1.8503,2.2555,-2.2924
0.562100,0.6090,-1.1760,1.2350,-1.8503,2.2555,-2.2924
0.562601,0.6090,-1.1760,1.2350,-1.7990,2.3129,-2.3132
0.563315,0.5027,-1.1010,1.2610,-1.7990,2.3129,-2.3132
0.564650,0.5027,-1.1010,1.2610,-1.7990,2.3129,-2.3132
0.564981,0.5027,-1.1010,1.2610,-1.7465,2.3764,-2.3327
0.565409,0.3833,-1.0614,1.3426,-1.7465,2.3764,-2.3327
0.567224,0.3833,-1.0614,1.3426,-1.7465,2.3764,-2.3327
0.567825,0.3833,-1.0614,1.3426,-1.6952,2.4474,-2.3497
0.568467,0.1749,-1.0231,1.4172,-1.6952,2.4474,-2.3497
0.568954,0.1749,-1.0231,1.4172,-1.6952,2.4474,-2.3497
0.569249,0.1749,-1.0231,1.4172,-1.6475,2.5244,-2.3595
0.569694,-0.0412,-1.0083,1.5081,-1.6475,2.5244,-2.3595
0.572084,-0.0412,-1.0083,1.5081,-1.6475,2.5244,-2.3595
0.572522,-0.0412,-1.0083,1.5081,-1.5962,2.5977,-2.3644
0.573162,-0.1726,-1.0274,1.6296,-1.5962,2.5977,-2.3644
0.573797,-0.1726,-1.0274,1.6296,-1.5962,2.5977,-2.3644
0.574189,-0.1726,-1.0274,1.6296,-1.5450,2.6734,-2.3669
0.574681,-0.3432,-1.0406,1.6898,-1.5450,2.6734,-2.3669
0.576148,-0.3432,-1.0406,1.6898,-1.5450,2.6734,-2.3669
0.576542,-0.3432,-1.0406,1.6898,-1.4937,2.7540,-2.3657
0.577062,-0.4593,-1.1078,1.8008,-1.4937,2.7540,-2.3657
0.578364,-0.4593,-1.1078,1.8008,-1.4937,2.7540,-2.3657
0.578771,-0.4593,-1.1078,1.8008,-1.4424,2.8310,-2.3620
0.579379,-0.5697,-1.0581,1.9124,-1.4424,2.8310,-2.3620
0.583099,-0.5697,-1.0581,1.9124,-1.4424,2.8310,-2.3620
0.583802,-0.5697,-1.0581,1.9124,-1.3934,2.9103,-2.3535
0.584610,-0.7315,-1.1514,2.0166,-1.3934,2.9103,-2.3535
0.585256,-0.7315,-1.1514,2.0166,-1.3934,2.9103,-2.3535
0.585643,-0.7315,-1.1514,2.0166,-1.3446,2.9886,-2.3424
0.586229,-0.8028,-1.1498,2.1194,-1.3446,2.9886,-2.3424
0.586827,-0.8028,-1.1498,2.1194,-1.3446,2.9886,-2.3424
0.587239,-0.8028,-1.1498,2.1194,-1.2946,3.0594,-2.3327
0.587782,-0.8448,-1.2181,2.2435,-1.2946,3.0594,-2.3327
0.588565,-0.8448,-1.2181,2.2435,-1.2946,3.0594,-2.3327
0.589009,-0.8448,-1.2181,2.2435,-1.2456,3.1254,-2.3217
0.589588,-0.9125,-1.2634,2.3689,-1.2456,3.1254,-2.3217
0.598488,-0.9125,-1.2634,2.3689,-1.2456,3.1254,-2.3217
0.598919,-0.9125,-1.2634,2.3689,-1.1943,3.1839,-2.3070
0.599532,-0.9320,-1.2767,2.4016,-1.1943,3.1839,-2.3070
0.600385,-0.9320,-1.2767,2.4016,-1.1943,3.1839,-2.3070
0.601265,-0.9320,-1.2767,2.4016,-1.1443,3.2354,-2.2949
0.602225,-0.9547,-1.3030,2.4472,-1.1443,3.2354,-2.2949
0.603091,-0.9547,-1.3030,2.4472,-1.1443,3.2354,-2.2949
0.603712,-0.9547,-1.3030,2.4472,-1.0953,3.2817,-2.2875
0.604616,-1.0293,-1.3561,2.5018,-1.0953,3.2817,-2.2875
0.605503,-1.0293,-1.3561,2.5018,-1.0953,3.2817,-2.2875
0.606066,-1.0293,-1.3561,2.5018,-1.0465,3.3220,-2.2764
0.606833,-1.0930,-1.3511,2.5632,-1.0465,3.3220,-2.2764
0.607634,-1.0930,-1.3511,2.5632,-1.0465,3.3220,-2.2764
0.608282,-1.0930,-1.3511,2.5632,-0.9965,3.3550,-2.2655
0.609065,-1.1201,-1.3822,2.6141,-0.9965,3.3550,-2.2655
0.609874,-1.1201,-1.3822,2.6141,-0.9965,3.3550,-2.2655
0.610508,-1.1201,-1.3822,2.6141,-0.9463,3.3782,-2.2557
0.611285,-1.0598,-1.3759,2.6026,-0.9463,3.3782,-2.2557
0.612157,-1.0598,-1.3759,2.6026,-0.9463,3.3782,-2.2557
0.612505,-1.0598,-1.3759,2.6026,-0.8975,3.3990,-2.2509
0.612970,-1.0168,-1.4132,2.6163,-0.8975,3.3990,-2.2509
0.613843,-1.0168,-1.4132,2.6163,-0.8975,3.3990,-2.2509
0.614196,-1.0168,-1.4132,2.6163,-0.8486,3.4198,-2.2472
0.614649,-1.0146,-1.4274,2.6195,-0.8486,3.4198,-2.2472
0.615107,-1.0146,-1.4274,2.6195,-0.8486,3.4198,-2.2472
0.615425,-1.0146,-1.4274,2.6195,-0.7997,3.4345,-2.2459
0.615947,-0.9559,-1.4182,2.6288,-0.7997,3.4345,-2.2459
0.616450,-0.9559,-1.4182,2.6288,-0.7997,3.4345,-2.2459
0.616774,-0.9559,-1.4182,2.6288,-0.7484,3.4479,-2.2496
0.617217,-1.0718,-1.3907,2.8034,-0.7484,3.4479,-2.2496
0.617672,-1.0718,-1.3907,2.8034,-0.7484,3.4479,-2.2496
0.617993,-1.0718,-1.3907,2.8034,-0.6886,3.4772,-2.2509
0.618415,-1.3142,-1.4111,3.2964,-0.6886,3.4772,-2.2509
0.618874,-1.3142,-1.4111,3.2964,-0.6886,3.4772,-2.2509
0.619199,-1.3142,-1.4111,3.2964,-0.6128,3.5163,-2.2459
0.619592,-1.3018,-1.3816,3.7298,-0.6128,3.5163,-2.2459
0.620081,-1.3018,-1.3816,3.7298,-0.6128,3.5163,-2.2459
0.620409,-1.3018,-1.3816,3.7298,-0.5236,3.5358,-2.2411
0.620860,-1.0721,-1.2014,3.8670,-0.5236,3.5358,-2.2411
0.623254,-1.0721,-1.2014,3.8670,-0.5236,3.5358,-2.2411
0.624120,-1.0721,-1.2014,3.8670,-0.4320,3.5200,-2.2411
0.624685,-0.8376,-1.0923,3.7771,-0.4320,3.5200,-2.2411
0.625165,-0.8376,-1.0923,3.7771,-0.4320,3.5200,-2.2411
0.625541,-0.8376,-1.0923,3.7771,-0.3403,3.4809,-2.2434
0.625989,-0.7594,-1.0461,3.6889,-0.3403,3.4809,-2.2434
0.627301,-0.7594,-1.0461,3.6889,-0.3403,3.4809,-2.2434
0.628415,-0.7594,-1.0461,3.6889,-0.2450,3.4369,-2.2459
0.629143,-0.8955,-1.0509,3.7135,-0.2450,3.4369,-2.2459
0.629802,-0.8955,-1.0509,3.7135,-0.2450,3.4369,-2.2459
0.630386,-0.8955,-1.0509,3.7135,-0.1497,3.3942,-2.2472
0.630824,-1.1446,-1.1579,3.7671,-0.1497,3.3942,-2.2472
0.641851,-1.1446,-1.1579,3.7671,-0.1497,3.3942,-2.2472
0.642212,-1.1446,-1.1579,3.7671,-0.0569,3.3539,-2.2399
0.642560,-1.4077,-1.1423,3.8937,-0.0569,3.3539,-2.2399
0.642916,-1.6106,-1.1352,3.8457,-0.0569,3.3539,-2.2399
0.643247,-1.6106,-1.1352,3.8457,-0.0569,3.3539,-2.2399
0.643494,-1.6106,-1.1352,3.8457,0.0359,3.3074,-2.2264
0.643800,-1.6106,-1.1352,3.8457,0.0359,3.3074,-2.2264
0.644098,-1.6106,-1.1352,3.8457,0.1239,3.2561,-2.2117
0.644436,-1.7368,-1.1138,3.7844,0.1239,3.2561,-2.2117
0.644812,-1.7368,-1.1138,3.7844,0.1239,3.2561,-2.2117
0.645046,-1.7368,-1.1138,3.7844,0.2045,3.1999,-2.1934
0.645373,-1.8691,-1.1445,3.6857,0.2045,3.1999,-2.1934
0.645710,-1.8691,-1.1445,3.6857,0.2045,3.1999,-2.1934
0.645923,-1.8691,-1.1445,3.6857,0.2815,3.1424,-2.1739
0.646238,-1.9243,-1.1753,3.6224,0.2815,3.1424,-2.1739
0.646631,-1.9243,-1.1753,3.6224,0.2815,3.1424,-2.1739
0.646880,-1.9243,-1.1753,3.6224,0.3535,3.0863,-2.1556
0.647213,-1.9317,-1.2220,3.5584,0.3535,3.0863,-2.1556
0.647570,-1.9317,-1.2220,3.5584,0.3535,3.0863,-2.1556
0.647784,-1.9317,-1.2220,3.5584,0.4207,3.0349,-2.1361
0.649220,-1.8150,-1.1977,3.5321,0.4207,3.0349,-2.1361
0.649803,-1.8150,-1.1977,3.5321,0.4207,3.0349,-2.1361
0.650109,-1.8150,-1.1977,3.5321,0.4818,2.9836,-2.1226
0.650428,-1.7135,-1.2311,3.4661,0.4818,2.9836,-2.1226
0.650758,-1.7135,-1.2311,3.4661,0.4818,2.9836,-2.1226
0.650986,-1.7135,-1.2311,3.4661,0.5380,2.9373,-2.1116
0.651304,-1.5968,-1.2301,3.4247,0.5380,2.9373,-2.1116
0.652104,-1.5968,-1.2301,3.4247,0.5380,2.9373,-2.1116
0.652364,-1.5968,-1.2301,3.4247,0.5893,2.8896,-2.1066
0.652649,-1.4712,-1.3226,3.3959,0.5893,2.8896,-2.1066
0.657102,-1.4712,-1.3226,3.3959,0.5893,2.8896,-2.1066
0.657784,-1.4712,-1.3226,3.3959,0.6346,2.8407,-2.1128
0.658467,-1.3658,-1.4002,3.3446,0.6346,2.8407,-2.1128
0.659099,-1.3658,-1.4002,3.3446,0.6346,2.8407,-2.1128
0.659473,-1.3658,-1.4002,3.3446,0.6761,2.7943,-2.1238
0.660297,-1.3214,-1.4807,3.2993,0.6761,2.7943,-2.1238
0.660877,-1.3214,-1.4807,3.2993,0.6761,2.7943,-2.1238
0.661174,-1.3214,-1.4807,3.2993,0.7116,2.7455,-2.1409
0.661636,-1.2162,-1.5870,3.2435,0.7116,2.7455,-2.1409
0.662158,-1.2162,-1.5870,3.2435,0.7116,2.7455,-2.1409
0.662506,-1.2162,-1.5870,3.2435,0.7421,2.7002,-2.1616
0.662960,-1.2080,-1.6772,3.1786,0.7421,2.7002,-2.1616
0.665286,-1.2080,-1.6772,3.1786,0.7421,2.7002,-2.1616
0.665560,-1.2080,-1.6772,3.1786,0.7666,2.6525,-2.1911
0.665949,-1.1573,-1.8166,3.1196,0.7666,2.6525,-2.1911
0.666291,-1.1573,-1.8166,3.1196,0.7666,2.6525,-2.1911
0.666524,-1.1573,-1.8166,3.1196,0.7861,2.6060,-2.2252
0.666854,-1.0706,-1.9404,3.0675,0.7861,2.6060,-2.2252
0.668719,-1.0706,-1.9404,3.0675,0.7861,2.6060,-2.2252
0.669127,-1.0706,-1.9404,3.0675,0.8044,2.5585,-2.2643
0.669543,-0.9864,-2.0185,3.0281,0.8044,2.5585,-2.2643
0.671284,-0.9864,-2.0185,3.0281,0.8044,2.5585,-2.2643
0.671826,-0.9864,-2.0185,3.0281,0.8203,2.5120,-2.3084
0.672695,-0.9713,-2.0767,3.0858,0.8203,2.5120,-2.3084
0.673339,-0.9713,-2.0767,3.0858,0.8203,2.5120,-2.3084
0.673749,-0.9713,-2.0767,3.0858,0.8349,2.4669,-2.3572
0.674331,-1.0316,-2.1000,3.1042,0.8349,2.4669,-2.3572
0.676861,-1.0316,-2.1000,3.1042,0.8349,2.4669,-2.3572
0.677203,-1.0316,-2.1000,3.1042,0.8484,2.4277,-2.4060
0.677669,-1.1450,-2.1015,3.1219,0.8484,2.4277,-2.4060
0.678164,-1.1450,-2.1015,3.1219,0.8484,2.4277,-2.4060
0.678468,-1.1450,-2.1015,3.1219,0.8619,2.3911,-2.4549
0.678897,-1.1886,-2.0544,3.1627,0.8619,2.3911,-2.4549
0.682519,-1.1886,-2.0544,3.1627,0.8619,2.3911,-2.4549
0.683160,-1.1886,-2.0544,3.1627,0.8789,2.3556,-2.5025
0.683872,-1.2215,-2.0053,3.1874,0.8789,2.3556,-2.5025
0.684644,-1.2215,-2.0053,3.1874,0.8789,2.3556,-2.5025
0.685123,-1.2215,-2.0053,3.1874,0.8972,2.3239,-2.5502
0.685789,-1.2544,-1.9567,3.2283,0.8972,2.3239,-2.5502
0.686489,-1.2544,-1.9567,3.2283,0.8972,2.3239,-2.5502
0.687005,-1.2544,-1.9567,3.2283,0.9217,2.2946,-2.5942
0.687524,-1.2915,-1.8834,3.2612,0.9217,2.2946,-2.5942
0.688288,-1.2915,-1.8834,3.2612,0.9217,2.2946,-2.5942
0.688694,-1.2915,-1.8834,3.2612,0.9461,2.2701,-2.6381
0.689275,-1.2705,-1.8334,3.2721,0.9461,2.2701,-2.6381
0.693762,-1.2705,-1.8334,3.2721,0.9461,2.2701,-2.6381
0.694248,-1.2705,-1.8334,3.2721,0.9742,2.2494,-2.6760
0.694863,-1.2877,-1.7971,3.2382,0.9742,2.2494,-2.6760
0.695477,-1.2877,-1.7971,3.2382,0.9742,2.2494,-2.6760
0.695871,-1.2877,-1.7971,3.2382,1.0047,2.2359,-2.7138
0.696581,-1.3117,-1.8302,3.1688,1.0047,2.2359,-2.7138
0.697214,-1.3117,-1.8302,3.1688,1.0047,2.2359,-2.7138
0.697636,-1.3117,-1.8302,3.1688,1.0352,2.2311,-2.7518
0.698235,-1.3066,-1.7640,3.0717,1.0352,2.2311,-2.7518
0.698795,-1.3066,-1.7640,3.0717,1.0352,2.2311,-2.7518
0.699196,-1.3066,-1.7640,3.0717,1.0634,2.2311,-2.7884
0.699751,-1.2504,-1.6901,2.9860,1.0634,2.2311,-2.7884
0.700441,-1.2504,-1.6901,2.9860,1.0634,2.2311,-2.7884
0.700831,-1.2504,-1.6901,2.9860,1.0940,2.2373,-2.8274
0.701449,-1.1669,-1.5739,2.8759,1.0940,2.2373,-2.8274
0.702075,-1.1669,-1.5739,2.8759,1.0940,2.2373,-2.8274
0.702482,-1.1669,-1.5739,2.8759,1.1270,2.2506,-2.8677
0.703078,-1.1743,-1.5492,2.7516,1.1270,2.2506,-2.8677
0.713899,-1.1743,-1.5492,2.7516,1.1270,2.2506,-2.8677
0.714241,-1.1743,-1.5492,2.7516,1.1600,2.2678,-2.9069
0.714607,-1.1484,-1.4771,2.6120,1.1600,2.2678,-2.9069
0.714989,-1.1484,-1.4771,2.6120,1.1600,2.2678,-2.9069
0.715207,-1.1484,-1.4771,2.6120,1.1892,2.2873,-2.9484
0.715524,-1.1222,-1.4304,2.4512,1.1892,2.2873,-2.9484
0.715882,-1.1222,-1.4304,2.4512,1.1892,2.2873,-2.9484
0.716178,-1.1222,-1.4304,2.4512,1.2185,2.3068,-2.9936
0.716522,-1.0580,-1.3210,2.3042,1.2185,2.3068,-2.9936
0.716851,-1.0580,-1.3210,2.3042,1.2185,2.3068,-2.9936
0.717062,-1.0580,-1.3210,2.3042,1.2455,2.3240,-3.0412
0.717390,-1.0994,-1.2702,2.1622,1.2455,2.3240,-3.0412
0.717748,-1.0994,-1.2702,2.1622,1.2455,2.3240,-3.0412
0.717966,-1.0994,-1.2702,2.1622,1.2686,2.3386,-3.0877
0.718284,-1.1946,-1.2917,2.0511,1.2686,2.3386,-3.0877
0.718623,-1.1946,-1.2917,2.0511,1.2686,2.3386,-3.0877
0.718855,-1.1946,-1.2917,2.0511,1.2906,2.3471,-3.1340
0.719200,-1.1467,-1.2256,1.9208,1.2906,2.3471,-3.1340
0.719557,-1.1467,-1.2256,1.9208,1.2906,2.3471,-3.1340
0.719791,-1.1467,-1.2256,1.9208,1.3065,2.3508,-3.1782
0.720179,-1.2368,-1.2517,1.7902,1.3065,2.3508,-3.1782
0.720533,-1.2368,-1.2517,1.7902,1.3065,2.3508,-3.1782
0.720814,-1.2368,-1.2517,1.7902,1.3200,2.3508,-3.2220
0.721122,-1.2348,-1.2573,1.6816,1.3200,2.3508,-3.2220
0.729039,-1.2348,-1.2573,1.6816,1.3200,2.3508,-3.2220
0.729871,-1.2348,-1.2573,1.6816,1.3310,2.3471,-3.2648
0.730562,-1.2039,-1.2819,1.5594,1.3310,2.3471,-3.2648
0.731733,-1.2039,-1.2819,1.5594,1.3310,2.3471,-3.2648
0.732319,-1.2039,-1.2819,1.5594,1.3358,2.3423,-3.3052
0.732927,-1.3040,-1.2682,1.4162,1.3358,2.3423,-3.3052
0.733551,-1.3040,-1.2682,1.4162,1.3358,2.3423,-3.3052
0.733972,-1.3040,-1.2682,1.4162,1.3408,2.3313,-3.3443
0.734559,-1.4459,-1.3168,1.3157,1.3408,2.3313,-3.3443
0.735175,-1.4459,-1.3168,1.3157,1.3408,2.3313,-3.3443
0.735559,-1.4459,-1.3168,1.3157,1.3420,2.3191,-3.3833
0.736316,-1.5547,-1.2309,1.2229,1.3420,2.3191,-3.3833
0.736932,-1.5547,-1.2309,1.2229,1.3420,2.3191,-3.3833
0.737392,-1.5547,-1.2309,1.2229,1.3408,2.3068,-3.4225
0.737926,-1.6697,-1.2395,1.1618,1.3408,2.3068,-3.4225
0.738551,-1.6697,-1.2395,1.1618,1.3408,2.3068,-3.4225
0.738962,-1.6697,-1.2395,1.1618,1.3383,2.2873,-3.4653
0.739500,-1.8097,-1.1856,1.0682,1.3383,2.2873,-3.4653
0.740188,-1.8097,-1.1856,1.0682,1.3383,2.2873,-3.4653
0.740599,-1.8097,-1.1856,1.0682,1.3346,2.2689,-3.5091
0.741165,-2.0277,-1.1982,1.0231,1.3346,2.2689,-3.5091
0.741771,-2.0277,-1.1982,1.0231,1.3346,2.2689,-3.5091
0.742198,-2.0277,-1.1982,1.0231,1.3310,2.2506,-3.5519
0.742664,-2.1120,-1.2170,0.9355,1.3310,2.2506,-3.5519
0.743257,-2.1120,-1.2170,0.9355,1.3310,2.2506,-3.5519
0.743642,-2.1120,-1.2170,0.9355,1.3285,2.2384,-3.5911
0.744279,-2.2502,-1.2164,0.8996,1.3285,2.2384,-3.5911
0.744891,-2.2502,-1.2164,0.8996,1.3285,2.2384,-3.5911
0.745280,-2.2502,-1.2164,0.8996,1.3261,2.2274,-3.6277
0.745853,-2.4765,-1.2324,0.8493,1.3261,2.2274,-3.6277
0.756203,-2.4765,-1.2324,0.8493,1.3261,2.2274,-3.6277
0.756818,-2.4765,-1.2324,0.8493,1.3248,2.2176,-3.6594
0.757494,-2.6669,-1.2330,0.8385,1.3248,2.2176,-3.6594
0.758155,-2.6669,-1.2330,0.8385,1.3248,2.2176,-3.6594
0.758590,-2.6669,-1.2330,0.8385,1.3236,2.2066,-3.6839
0.759223,-2.9501,-1.2705,0.8523,1.3236,2.2066,-3.6839
0.759819,-2.9501,-1.2705,0.8523,1.3236,2.2066,-3.6839
0.760541,-2.9501,-1.2705,0.8523,1.3236,2.1956,-3.7009
0.761111,-3.1922,-1.2809,0.8356,1.3236,2.1956,-3.7009
0.761827,-3.1922,-1.2809,0.8356,1.3236,2.1956,-3.7009
0.762274,-3.1922,-1.2809,0.8356,1.3273,2.1821,-3.7120
0.762973,-3.4071,-1.3554,0.8123,1.3273,2.1821,-3.7120
0.763437,-3.4071,-1.3554,0.8123,1.3273,2.1821,-3.7120
0.763656,-3.4071,-1.3554,0.8123,1.3321,2.1663,-3.7095
0.764037,-3.6327,-1.3811,0.7804,1.3321,2.1663,-3.7095
0.764418,-3.6327,-1.3811,0.7804,1.3321,2.1663,-3.7095
0.764657,-3.6327,-1.3811,0.7804,1.3383,2.1443,-3.7034
0.764944,-3.8749,-1.3824,0.7526,1.3383,2.1443,-3.7034
0.765293,-3.8749,-1.3824,0.7526,1.3383,2.1443,-3.7034
0.765514,-3.8749,-1.3824,0.7526,1.3493,2.1223,-3.6876
0.765837,-4.1296,-1.3993,0.7270,1.3493,2.1223,-3.6876
0.766173,-4.1296,-1.3993,0.7270,1.3493,2.1223,-3.6876
0.766394,-4.1296,-1.3993,0.7270,1.3603,2.0967,-3.6644
0.766800,-4.3827,-1.4528,0.6735,1.3603,2.0967,-3.6644
0.767112,-4.3827,-1.4528,0.6735,1.3603,2.0967,-3.6644
0.767333,-4.3827,-1.4528,0.6735,1.3700,2.0723,-3.6301
0.767657,-4.5430,-1.4884,0.6240,1.3700,2.0723,-3.6301
0.768016,-4.5430,-1.4884,0.6240,1.3700,2.0723,-3.6301
0.768266,-4.5430,-1.4884,0.6240,1.3848,2.0466,-3.5886
0.768602,-4.7845,-1.6029,0.5517,1.3848,2.0466,-3.5886
0.774288,-4.7845,-1.6029,0.5517,1.3848,2.0466,-3.5886
0.774916,-4.7845,-1.6029,0.5517,1.3993,2.0197,-3.5386
0.775632,-4.9820,-1.7216,0.4673,1.3993,2.0197,-3.5386
0.776317,-4.9820,-1.7216,0.4673,1.3993,2.0197,-3.5386
0.776853,-4.9820,-1.7216,0.4673,1.4128,1.9940,-3.4799
0.777531,-5.1922,-1.8777,0.3551,1.4128,1.9940,-3.4799
0.778240,-5.1922,-1.8777,0.3551,1.4128,1.9940,-3.4799
0.778727,-5.1922,-1.8777,0.3551,1.4263,1.9720,-3.4115
0.779430,-5.3763,-2.0662,0.2109,1.4263,1.9720,-3.4115
0.780222,-5.3763,-2.0662,0.2109,1.4263,1.9720,-3.4115
0.780524,-5.3763,-2.0662,0.2109,1.4384,1.9575,-3.3333
0.780933,-5.5587,-2.2372,0.0302,1.4384,1.9575,-3.3333
0.781365,-5.5587,-2.2372,0.0302,1.4384,1.9575,-3.3333
0.781647,-5.5587,-2.2372,0.0302,1.4446,1.9464,-3.2453
0.782024,-5.6973,-2.3690,-0.1032,1.4446,1.9464,-3.2453
0.782464,-5.6973,-2.3690,-0.1032,1.4446,1.9464,-3.2453
0.782739,-5.6973,-2.3690,-0.1032,1.4494,1.9403,-3.1500
0.783157,-5.8432,-2.4786,-0.2131,1.4494,1.9403,-3.1500
0.791062,-5.8432,-2.4786,-0.2131,1.4494,1.9403,-3.1500
0.791792,-5.8432,-2.4786,-0.2131,1.4531,1.9342,-3.0487
0.792516,-5.9488,-2.6002,-0.3432,1.4531,1.9342,-3.0487
0.793034,-5.9488,-2.6002,-0.3432,1.4531,1.9342,-3.0487
0.793370,-5.9488,-2.6002,-0.3432,1.4506,1.9330,-2.9411
0.793900,-6.0182,-2.6736,-0.4898,1.4506,1.9330,-2.9411
0.794419,-6.0182,-2.6736,-0.4898,1.4506,1.9330,-2.9411
0.794781,-6.0182,-2.6736,-0.4898,1.4483,1.9305,-2.8311
0.795270,-6.0514,-2.7361,-0.5784,1.4483,1.9305,-2.8311
0.795779,-6.0514,-2.7361,-0.5784,1.4483,1.9305,-2.8311
0.796215,-6.0514,-2.7361,-0.5784,1.4470,1.9220,-2.7200
0.796722,-6.1491,-2.8085,-0.6446,1.4470,1.9220,-2.7200
0.797246,-6.1491,-2.8085,-0.6446,1.4470,1.9220,-2.7200
0.797561,-6.1491,-2.8085,-0.6446,1.4446,1.9110,-2.6088
0.797980,-6.1106,-2.8178,-0.7031,1.4446,1.9110,-2.6088
0.798500,-6.1106,-2.8178,-0.7031,1.4446,1.9110,-2.6088
0.798843,-6.1106,-2.8178,-0.7031,1.4409,1.9000,-2.4988
0.799326,-6.1548,-2.8561,-0.7409,1.4409,1.9000,-2.4988
0.799817,-6.1548,-2.8561,-0.7409,1.4409,1.9000,-2.4988
0.800227,-6.1548,-2.8561,-0.7409,1.4360,1.8829,-2.3877
0.800711,-6.3295,-2.8883,-0.7552,1.4360,1.8829,-2.3877
0.807830,-6.3295,-2.8883,-0.7552,1.4360,1.8829,-2.3877
0.808414,-6.3295,-2.8883,-0.7552,1.4299,1.8597,-2.2740
0.808951,-6.3540,-2.8385,-0.7269,1.4299,1.8597,-2.2740
0.809458,-6.3540,-2.8385,-0.7269,1.4299,1.8597,-2.2740
0.809885,-6.3540,-2.8385,-0.7269,1.4251,1.8377,-2.1592
0.810422,-6.2609,-2.5975,-0.8421,1.4251,1.8377,-2.1592
0.810927,-6.2609,-2.5975,-0.8421,1.4251,1.8377,-2.1592
0.811273,-6.2609,-2.5975,-0.8421,1.4189,1.8231,-2.0541
0.811757,-5.9202,-2.1475,-0.9174,1.4189,1.8231,-2.0541
0.812301,-5.9202,-2.1475,-0.9174,1.4189,1.8231,-2.0541
0.812546,-5.9202,-2.1475,-0.9174,1.4116,1.8267,-1.9661
0.812905,-5.3830,-1.5792,-0.9944,1.4116,1.8267,-1.9661
0.813306,-5.3830,-1.5792,-0.9944,1.4116,1.8267,-1.9661
0.813565,-5.3830,-1.5792,-0.9944,1.4043,1.8414,-1.9001
0.813888,-4.7214,-0.9903,-0.9779,1.4043,1.8414,-1.9001
0.814266,-4.7214,-0.9903,-0.9779,1.4043,1.8414,-1.9001
0.814527,-4.7214,-0.9903,-0.9779,1.3958,1.8670,-1.8550
0.814914,-4.2003,-0.4825,-0.9347,1.3958,1.8670,-1.8550
0.817012,-4.2003,-0.4825,-0.9347,1.3958,1.8670,-1.8550
0.817286,-4.2003,-0.4825,-0.9347,1.3921,1.9037,-1.8220
0.817647,-4.0941,-0.0138,-0.9978,1.3921,1.9037,-1.8220
0.818037,-4.0941,-0.0138,-0.9978,1.3921,1.9037,-1.8220
0.818292,-4.0941,-0.0138,-0.9978,1.3921,1.9452,-1.7927
0.818595,-4.0431,0.2029,-0.8663,1.3921,1.9452,-1.7927
0.826044,-4.0431,0.2029,-0.8663,1.3921,1.9452,-1.7927
0.826486,-4.0431,0.2029,-0.8663,1.3945,1.9722,-1.7621
0.827056,-4.1125,0.2543,-0.7896,1.3945,1.9722,-1.7621
0.827804,-4.1125,0.2543,-0.7896,1.3945,1.9722,-1.7621
0.828405,-4.1125,0.2543,-0.7896,1.4043,1.9855,-1.7255
0.829003,-4.3615,0.2799,-0.8601,1.4043,1.9855,-1.7255
0.829689,-4.3615,0.2799,-0.8601,1.4043,1.9855,-1.7255
0.830142,-4.3615,0.2799,-0.8601,1.4103,1.9990,-1.6815
0.830760,-4.6699,0.3249,-1.0046,1.4103,1.9990,-1.6815
0.831408,-4.6699,0.3249,-1.0046,1.4103,1.9990,-1.6815
0.831855,-4.6699,0.3249,-1.0046,1.4153,2.0160,-1.6277
0.832569,-4.9224,0.3782,-1.1100,1.4153,2.0160,-1.6277
0.833201,-4.9224,0.3782,-1.1100,1.4153,2.0160,-1.6277
0.833671,-4.9224,0.3782,-1.1100,1.4176,2.0295,-1.5704
0.834267,-5.1043,0.3285,-1.2224,1.4176,2.0295,-1.5704
0.834890,-5.1043,0.3285,-1.2224,1.4176,2.0295,-1.5704
0.835329,-5.1043,0.3285,-1.2224,1.4140,2.0417,-1.5069
0.835968,-5.2332,0.3439,-1.3014,1.4140,2.0417,-1.5069
0.836590,-5.2332,0.3439,-1.3014,1.4140,2.0417,-1.5069
0.837066,-5.2332,0.3439,-1.3014,1.4066,2.0527,-1.4432
0.837677,-5.3080,0.3305,-1.4093,1.4066,2.0527,-1.4432
0.838279,-5.3080,0.3305,-1.4093,1.4066,2.0527,-1.4432
0.838775,-5.3080,0.3305,-1.4093,1.3958,2.0673,-1.3773
0.839326,-5.3409,0.3941,-1.5189,1.3958,2.0673,-1.3773
0.840018,-5.3409,0.3941,-1.5189,1.3958,2.0673,-1.3773
0.840465,-5.3409,0.3941,-1.5189,1.3823,2.0870,-1.3126
0.841076,-5.3396,0.4456,-1.5349,1.3823,2.0870,-1.3126
0.841690,-5.3396,0.4456,-1.5349,1.3823,2.0870,-1.3126
0.842155,-5.3396,0.4456,-1.5349,1.3700,2.1028,-1.2503
0.842679,-5.2682,0.4481,-1.5114,1.3700,2.1028,-1.2503
0.850404,-5.2682,0.4481,-1.5114,1.3700,2.1028,-1.2503
0.850901,-5.2682,0.4481,-1.5114,1.3578,2.1150,-1.1879
0.851554,-5.2519,0.5069,-1.5096,1.3578,2.1150,-1.1879
0.852212,-5.2519,0.5069,-1.5096,1.3578,2.1150,-1.1879
0.852596,-5.2519,0.5069,-1.5096,1.3456,2.1285,-1.1293
0.853161,-5.2045,0.5316,-1.4864,1.3456,2.1285,-1.1293
0.853735,-5.2045,0.5316,-1.4864,1.3456,2.1285,-1.1293
0.854120,-5.2045,0.5316,-1.4864,1.3370,2.1431,-1.0731
0.854645,-5.2351,0.6345,-1.4980,1.3370,2.1431,-1.0731
0.855206,-5.2351,0.6345,-1.4980,1.3370,2.1431,-1.0731
0.855600,-5.2351,0.6345,-1.4980,1.3298,2.1565,-1.0132
0.856255,-5.2567,0.6765,-1.4731,1.3298,2.1565,-1.0132
0.856751,-5.2567,0.6765,-1.4731,1.3298,2.1565,-1.0132
0.857054,-5.2567,0.6765,-1.4731,1.3236,2.1676,-0.9534
0.857407,-5.2405,0.6216,-1.4540,1.3236,2.1676,-0.9534
0.857870,-5.2405,0.6216,-1.4540,1.3236,2.1676,-0.9534
0.858179,-5.2405,0.6216,-1.4540,1.3188,2.1711,-0.8947
0.858621,-5.1553,0.5899,-1.3840,1.3188,2.1711,-0.8947
0.859074,-5.1553,0.5899,-1.3840,1.3188,2.1711,-0.8947
0.859364,-5.1553,0.5899,-1.3840,1.3138,2.1711,-0.8422
0.859768,-5.0245,0.4805,-1.3277,1.3138,2.1711,-0.8422
0.864869,-5.0245,0.4805,-1.3277,1.3138,2.1711,-0.8422
0.865226,-5.0245,0.4805,-1.3277,1.3078,2.1663,-0.7909
0.865547,-4.8831,0.3664,-1.3364,1.3078,2.1663,-0.7909
0.865865,-4.8831,0.3664,-1.3364,1.3078,2.1663,-0.7909
0.866090,-4.8831,0.3664,-1.3364,1.3003,2.1578,-0.7457
0.866423,-4.7120,0.2777,-1.3501,1.3003,2.1578,-0.7457
0.866762,-4.7120,0.2777,-1.3501,1.3003,2.1578,-0.7457
0.866979,-4.7120,0.2777,-1.3501,1.2906,2.1468,-0.7041
0.867275,-4.6822,0.2674,-1.3866,1.2906,2.1468,-0.7041
0.867637,-4.6822,0.2674,-1.3866,1.2906,2.1468,-0.7041
0.867855,-4.6822,0.2674,-1.3866,1.2821,2.1346,-0.6651
0.868224,-4.5440,0.2805,-1.3781,1.2821,2.1346,-0.6651
0.872919,-4.5440,0.2805,-1.3781,1.2821,2.1346,-0.6651
0.873776,-4.5440,0.2805,-1.3781,1.2710,2.1223,-0.6259
0.874820,-4.5769,0.4530,-1.4805,1.2710,2.1223,-0.6259
0.876015,-4.5769,0.4530,-1.4805,1.2710,2.1223,-0.6259
0.876931,-4.5769,0.4530,-1.4805,1.2600,2.1187,-0.5844
0.877650,-4.4542,0.5278,-1.4975,1.2600,2.1187,-0.5844
0.878367,-4.4542,0.5278,-1.4975,1.2600,2.1187,-0.5844
0.878851,-4.4542,0.5278,-1.4975,1.2528,2.1175,-0.5441
0.879582,-4.4237,0.6008,-1.5462,1.2528,2.1175,-0.5441
0.880324,-4.4237,0.6008,-1.5462,1.2528,2.1175,-0.5441
0.880717,-4.4237,0.6008,-1.5462,1.2467,2.1138,-0.5026
0.881354,-4.2536,0.5562,-1.5587,1.2467,2.1138,-0.5026
0.882022,-4.2536,0.5562,-1.5587,1.2467,2.1138,-0.5026
0.882436,-4.2536,0.5562,-1.5587,1.2357,2.1053,-0.4623
0.883058,-4.1189,0.5181,-1.5681,1.2357,2.1053,-0.4623
0.883688,-4.1189,0.5181,-1.5681,1.2357,2.1053,-0.4623
0.884136,-4.1189,0.5181,-1.5681,1.2247,2.0893,-0.4280
0.884863,-3.9648,0.4007,-1.6061,1.2247,2.0893,-0.4280
0.885498,-3.9648,0.4007,-1.6061,1.2247,2.0893,-0.4280
0.885889,-3.9648,0.4007,-1.6061,1.2137,2.0747,-0.3926
0.886539,-3.7623,0.2758,-1.6082,1.2137,2.0747,-0.3926
0.887192,-3.7623,0.2758,-1.6082,1.2137,2.0747,-0.3926
0.887577,-3.7623,0.2758,-1.6082,1.2002,2.0600,-0.3608
0.888174,-3.5495,0.1818,-1.6179,1.2002,2.0600,-0.3608
0.897839,-3.5495,0.1818,-1.6179,1.2002,2.0600,-0.3608
0.898501,-3.5495,0.1818,-1.6179,1.1831,2.0405,-0.3340
0.899263,-3.3306,0.0825,-1.5734,1.1831,2.0405,-0.3340
0.900085,-3.3306,0.0825,-1.5734,1.1831,2.0405,-0.3340
0.900499,-3.3306,0.0825,-1.5734,1.1685,2.0160,-0.3095
0.901004,-3.1107,-0.0379,-1.4770,1.1685,2.0160,-0.3095
0.901628,-3.1107,-0.0379,-1.4770,1.1685,2.0160,-0.3095
0.902059,-3.1107,-0.0379,-1.4770,1.1538,1.9903,-0.2925
0.902658,-2.9056,-0.1135,-1.3259,1.1538,1.9903,-0.2925
0.903323,-2.9056,-0.1135,-1.3259,1.1538,1.9903,-0.2925
0.903570,-2.9056,-0.1135,-1.3259,1.1392,1.9610,-0.2777
0.904106,-2.6550,-0.2439,-1.2230,1.1392,1.9610,-0.2777
0.904532,-2.6550,-0.2439,-1.2230,1.1392,1.9610,-0.2777
0.904878,-2.6550,-0.2439,-1.2230,1.1294,1.9366,-0.2692
0.905454,-2.4283,-0.3092,-1.1271,1.1294,1.9366,-0.2692
0.906159,-2.4283,-0.3092,-1.1271,1.1294,1.9366,-0.2692
0.906722,-2.4283,-0.3092,-1.1271,1.1220,1.9085,-0.2668
0.907252,-2.2722,-0.3244,-0.9310,1.1220,1.9085,-0.2668
0.907600,-2.2722,-0.3244,-0.9310,1.1220,1.9085,-0.2668
0.907868,-2.2722,-0.3244,-0.9310,1.1184,1.8792,-0.2692
0.908289,-2.0051,-0.2968,-0.7383,1.1184,1.8792,-0.2692
0.908682,-2.0051,-0.2968,-0.7383,1.1184,1.8792,-0.2692
0.908931,-2.0051,-0.2968,-0.7383,1.1208,1.8437,-0.2802
0.909294,-1.4903,-0.4093,-0.3003,1.1208,1.8437,-0.2802
0.909644,-1.4903,-0.4093,-0.3003,1.1208,1.8437,-0.2802
0.909885,-1.4903,-0.4093,-0.3003,1.1305,1.7949,-0.3083
0.910235,-1.3879,-0.8943,0.1081,1.1305,1.7949,-0.3083
0.910579,-1.3879,-0.8943,0.1081,1.1305,1.7949,-0.3083
0.910824,-1.3879,-0.8943,0.1081,1.1367,1.7156,-0.3388
0.911191,-1.5264,-0.9738,0.2569,1.1367,1.7156,-0.3388
0.917738,-1.5264,-0.9738,0.2569,1.1367,1.7156,-0.3388
0.918441,-1.5264,-0.9738,0.2569,1.1392,1.6239,-0.3572
0.918839,-1.6403,-0.7806,0.3250,1.1392,1.6239,-0.3572
0.919223,-1.6403,-0.7806,0.3250,1.1392,1.6239,-0.3572
0.919562,-1.6403,-0.7806,0.3250,1.1392,1.5421,-0.3682
0.920016,-1.6827,-0.7043,0.4275,1.1392,1.5421,-0.3682
0.920473,-1.6827,-0.7043,0.4275,1.1392,1.5421,-0.3682
0.920760,-1.6827,-0.7043,0.4275,1.1465,1.4626,-0.3755
0.921176,-1.6067,-0.7408,0.5802,1.1465,1.4626,-0.3755
0.921635,-1.6067,-0.7408,0.5802,1.1465,1.4626,-0.3755
0.921947,-1.6067,-0.7408,0.5802,1.1513,1.3795,-0.3816
0.922367,-1.6082,-0.6864,0.6403,1.1513,1.3795,-0.3816
0.922767,-1.6082,-0.6864,0.6403,1.1513,1.3795,-0.3816
0.923127,-1.6082,-0.6864,0.6403,1.1575,1.2940,-0.3913
0.923566,-1.5545,-0.6818,0.7684,1.1575,1.2940,-0.3913
0.926037,-1.5545,-0.6818,0.7684,1.1575,1.2940,-0.3913
0.926330,-1.5545,-0.6818,0.7684,1.1635,1.2037,-0.4036
0.926763,-1.5563,-0.6661,0.8309,1.1635,1.2037,-0.4036
0.927213,-1.5563,-0.6661,0.8309,1.1635,1.2037,-0.4036
0.927519,-1.5563,-0.6661,0.8309,1.1697,1.1181,-0.4122
0.927995,-1.5618,-0.6393,0.8479,1.1697,1.1181,-0.4122
0.931599,-1.5618,-0.6393,0.8479,1.1697,1.1181,-0.4122
0.932744,-1.5618,-0.6393,0.8479,1.1745,1.0399,-0.4232
0.933724,-1.5627,-0.6114,0.9043,1.1745,1.0399,-0.4232
0.934470,-1.5627,-0.6114,0.9043,1.1745,1.0399,-0.4232
0.934959,-1.5627,-0.6114,0.9043,1.1831,0.9642,-0.4317
0.935541,-1.5070,-0.5247,0.8992,1.1831,0.9642,-0.4317
0.936375,-1.5070,-0.5247,0.8992,1.1831,0.9642,-0.4317
0.936703,-1.5070,-0.5247,0.8992,1.1892,0.9043,-0.4366
0.937011,-1.5413,-0.4231,0.8283,1.1892,0.9043,-0.4366
0.937500,-1.5413,-0.4231,0.8283,1.1892,0.9043,-0.4366
0.937799,-1.5413,-0.4231,0.8283,1.2002,0.8529,-0.4378
0.938207,-1.5618,-0.4446,0.8621,1.2002,0.8529,-0.4378
0.938675,-1.5618,-0.4446,0.8621,1.2002,0.8529,-0.4378
0.939020,-1.5618,-0.4446,0.8621,1.2112,0.8029,-0.4390
0.939479,-1.5311,-0.5648,1.0019,1.2112,0.8029,-0.4390
0.945193,-1.5311,-0.5648,1.0019,1.2112,0.8029,-0.4390
0.945571,-1.5311,-0.5648,1.0019,1.2270,0.7516,-0.4366
0.946113,-1.5236,-0.5344,0.9805,1.2270,0.7516,-0.4366
0.946598,-1.5236,-0.5344,0.9805,1.2270,0.7516,-0.4366
0.946907,-1.5236,-0.5344,0.9805,1.2430,0.7051,-0.4353
0.947456,-1.4473,-0.6177,0.9971,1.2430,0.7051,-0.4353
0.947998,-1.4473,-0.6177,0.9971,1.2430,0.7051,-0.4353
0.948315,-1.4473,-0.6177,0.9971,1.2600,0.6612,-0.4378
0.948700,-1.3835,-0.6829,1.0684,1.2600,0.6612,-0.4378
0.949189,-1.3835,-0.6829,1.0684,1.2600,0.6612,-0.4378
0.949508,-1.3835,-0.6829,1.0684,1.2785,0.6197,-0.4439
0.949987,-1.3034,-0.7960,1.1498,1.2785,0.6197,-0.4439
0.950501,-1.3034,-0.7960,1.1498,1.2785,0.6197,-0.4439
0.950842,-1.3034,-0.7960,1.1498,1.2980,0.5720,-0.4525
0.951294,-1.1770,-0.8668,1.2266,1.2980,0.5720,-0.4525
0.953836,-1.1770,-0.8668,1.2266,1.2980,0.5720,-0.4525
0.954526,-1.1770,-0.8668,1.2266,1.3163,0.5268,-0.4683
0.955229,-1.0832,-0.9143,1.1636,1.3163,0.5268,-0.4683
0.955696,-1.0832,-0.9143,1.1636,1.3163,0.5268,-0.4683
0.956050,-1.0832,-0.9143,1.1636,1.3333,0.4865,-0.4866
0.956495,-0.9858,-0.8346,1.1684,1.3333,0.4865,-0.4866
0.959699,-0.9858,-0.8346,1.1684,1.3333,0.4865,-0.4866
0.960095,-0.9858,-0.8346,1.1684,1.3468,0.4535,-0.5038
0.960558,-0.8655,-0.5522,0.8596,1.3468,0.4535,-0.5038
0.960943,-0.8655,-0.5522,0.8596,1.3468,0.4535,-0.5038
0.961208,-0.8655,-0.5522,0.8596,1.3530,0.4364,-0.5173
0.961632,-0.9230,-0.3634,0.8730,1.3530,0.4364,-0.5173
0.962412,-0.9230,-0.3634,0.8730,1.3530,0.4364,-0.5173
0.962685,-0.9230,-0.3634,0.8730,1.3615,0.4107,-0.5233
0.963070,-0.9645,-0.2730,0.9745,1.3615,0.4107,-0.5233
0.968033,-0.9645,-0.2730,0.9745,1.3615,0.4107,-0.5233
0.968614,-0.9645,-0.2730,0.9745,1.3725,0.3717,-0.5246
0.969447,-1.0280,-0.2158,1.0700,1.3725,0.3717,-0.5246
0.969983,-1.0280,-0.2158,1.0700,1.3725,0.3717,-0.5246
0.970369,-1.0280,-0.2158,1.0700,1.3871,0.3228,-0.5173
0.970931,-1.0935,-0.1691,1.1164,1.3871,0.3228,-0.5173
0.971587,-1.0935,-0.1691,1.1164,1.3871,0.3228,-0.5173
0.972048,-1.0935,-0.1691,1.1164,1.4030,0.2654,-0.5074
0.972675,-1.1128,-0.0901,1.1114,1.4030,0.2654,-0.5074
0.973300,-1.1128,-0.0901,1.1114,1.4030,0.2654,-0.5074
0.973767,-1.1128,-0.0901,1.1114,1.4201,0.2043,-0.4903
0.974526,-1.1243,0.1346,0.9542,1.4201,0.2043,-0.4903
0.975194,-1.1243,0.1346,0.9542,1.4201,0.2043,-0.4903
0.975662,-1.1243,0.1346,0.9542,1.4396,0.1578,-0.4573
0.976327,-1.1515,0.3324,0.8578,1.4396,0.1578,-0.4573
0.976844,-1.1515,0.3324,0.8578,1.4396,0.1578,-0.4573
0.977168,-1.1515,0.3324,0.8578,1.4581,0.1163,-0.4243
0.977694,-1.0654,0.2650,0.7778,1.4581,0.1163,-0.4243
0.984693,-1.0654,0.2650,0.7778,1.4581,0.1163,-0.4243
0.985162,-1.0654,0.2650,0.7778,1.4739,0.0736,-0.3963
0.985718,-0.8988,0.1614,0.6610,1.4739,0.0736,-0.3963
0.986211,-0.8988,0.1614,0.6610,1.4739,0.0736,-0.3963
0.986534,-0.8988,0.1614,0.6610,1.4836,0.0368,-0.3755
0.986928,-0.7850,0.1383,0.5490,1.4836,0.0368,-0.3755
0.987460,-0.7850,0.1383,0.5490,1.4836,0.0368,-0.3755
0.987792,-0.7850,0.1383,0.5490,1.4911,0.0076,-0.3585
0.988326,-0.6441,0.1341,0.4236,1.4911,0.0076,-0.3585
0.988970,-0.6441,0.1341,0.4236,1.4911,0.0076,-0.3585
0.989341,-0.6441,0.1341,0.4236,1.4971,-0.0107,-0.3462
0.989882,-0.4496,0.0880,0.2922,1.4971,-0.0107,-0.3462
0.990585,-0.4496,0.0880,0.2922,1.4971,-0.0107,-0.3462
0.991039,-0.4496,0.0880,0.2922,1.5021,-0.0194,-0.3388
0.991495,-0.3075,0.0386,0.1703,1.5021,-0.0194,-0.3388
0.991995,-0.3075,0.0386,0.1703,1.5021,-0.0194,-0.3388
0.992361,-0.3075,0.0386,0.1703,1.5081,-0.0157,-0.3365
0.992779,-0.1543,-0.0131,0.1284,1.5081,-0.0157,-0.3365
0.993460,-0.1543,-0.0131,0.1284,1.5081,-0.0157,-0.3365
0.993943,-0.1543,-0.0131,0.1284,1.5118,-0.0084,-0.3388
0.994565,-0.0809,-0.0251,0.0711,1.5118,-0.0084,-0.3388
1.000841,-0.0809,-0.0251,0.0711,1.5118,-0.0084,-0.3388
1.001364,-0.0809,-0.0251,0.0711,1.5154,0.0100,-0.3425
1.002017,-0.0605,0.0007,-0.3131,1.5154,0.0100,-0.3425
1.002667,-0.0605,0.0007,-0.3131,1.5154,0.0100,-0.3425
1.003144,-0.0605,0.0007,-0.3131,1.5142,0.0443,-0.3450
1.003775,-0.0280,0.0510,-0.5905,1.5142,0.0443,-0.3450
1.004468,-0.0280,0.0510,-0.5905,1.5142,0.0443,-0.3450
1.004838,-0.0280,0.0510,-0.5905,1.5081,0.0918,-0.3450
1.005272,-0.0422,0.2299,-1.1663,1.5081,0.0918,-0.3450
1.005747,-0.0422,0.2299,-1.1663,1.5081,0.0918,-0.3450
1.006074,-0.0422,0.2299,-1.1663,1.4911,0.1517,-0.3413
1.006547,0.0189,0.3679,-1.5551,1.4911,0.1517,-0.3413
1.007091,0.0189,0.3679,-1.5551,1.4911,0.1517,-0.3413
1.007446,0.0189,0.3679,-1.5551,1.4726,0.2141,-0.3377
1.007990,0.0175,0.4536,-1.5913,1.4726,0.2141,-0.3377
1.008467,0.0175,0.4536,-1.5913,1.4726,0.2141,-0.3377
1.008814,0.0175,0.4536,-1.5913,1.4543,0.2727,-0.3315
1.009306,0.0613,0.6052,-1.7232,1.4543,0.2727,-0.3315
1.009801,0.0613,0.6052,-1.7232,1.4543,0.2727,-0.3315
1.010135,0.0613,0.6052,-1.7232,1.4373,0.3277,-0.3242
1.010637,0.0946,0.7115,-1.8087,1.4373,0.3277,-0.3242
1.016383,0.0946,0.7115,-1.8087,1.4373,0.3277,-0.3242
1.016880,0.0946,0.7115,-1.8087,1.4176,0.3789,-0.3193
1.017386,-0.0522,0.8464,-1.8047,1.4176,0.3789,-0.3193
1.017851,-0.0522,0.8464,-1.8047,1.4176,0.3789,-0.3193
1.018191,-0.0522,0.8464,-1.8047,1.3993,0.4254,-0.3083
1.018501,-0.0674,0.9478,-1.8471,1.3993,0.4254,-0.3083
1.019064,-0.0674,0.9478,-1.8471,1.3993,0.4254,-0.3083
1.019402,-0.0674,0.9478,-1.8471,1.3786,0.4718,-0.3047
1.019885,0.1428,1.0079,-2.0123,1.3786,0.4718,-0.3047
1.020455,0.1428,1.0079,-2.0123,1.3786,0.4718,-0.3047
1.020784,0.1428,1.0079,-2.0123,1.3431,0.5365,-0.3108
1.021276,0.1516,1.1433,-2.3358,1.3431,0.5365,-0.3108
1.021830,0.1516,1.1433,-2.3358,1.3431,0.5365,-0.3108
1.022154,0.1516,1.1433,-2.3358,1.2992,0.6025,-0.3193
1.022561,0.3719,1.0614,-2.3541,1.2992,0.6025,-0.3193
1.025097,0.3719,1.0614,-2.3541,1.2992,0.6025,-0.3193
1.025420,0.3719,1.0614,-2.3541,1.2565,0.6600,-0.3315
1.025873,0.4292,1.0111,-2.2611,1.2565,0.6600,-0.3315
1.026388,0.4292,1.0111,-2.2611,1.2565,0.6600,-0.3315
1.026691,0.4292,1.0111,-2.2611,1.2185,0.7063,-0.3413
1.027069,0.2792,0.8970,-2.1628,1.2185,0.7063,-0.3413
1.032401,0.2792,0.8970,-2.1628,1.2185,0.7063,-0.3413
1.032898,0.2792,0.8970,-2.1628,1.1868,0.7381,-0.3498
1.033425,0.1225,0.8112,-2.0039,1.1868,0.7381,-0.3498
1.033970,0.1225,0.8112,-2.0039,1.1868,0.7381,-0.3498
1.034297,0.1225,0.8112,-2.0039,1.1550,0.7663,-0.3535
1.034746,0.0414,0.6926,-1.8660,1.1550,0.7663,-0.3535
1.035231,0.0414,0.6926,-1.8660,1.1550,0.7663,-0.3535
1.035616,0.0414,0.6926,-1.8660,1.1270,0.7858,-0.3560
1.036159,0.3512,0.6390,-2.0676,1.1270,0.7858,-0.3560
1.036675,0.3512,0.6390,-2.0676,1.1270,0.7858,-0.3560
1.037022,0.3512,0.6390,-2.0676,1.0842,0.7796,-0.3743
1.037543,1.0652,0.2934,-2.5978,1.0842,0.7796,-0.3743
1.038089,1.0652,0.2934,-2.5978,1.0842,0.7796,-0.3743
1.038415,1.0652,0.2934,-2.5978,1.0231,0.7198,-0.4097
1.038859,1.2168,0.0307,-2.9535,1.0231,0.7198,-0.4097
1.041591,1.2168,0.0307,-2.9535,1.0231,0.7198,-0.4097
1.042070,1.2168,0.0307,-2.9535,0.9571,0.6795,-0.4488
1.042650,1.2877,0.0064,-3.2808,0.9571,0.6795,-0.4488
1.043147,1.2877,0.0064,-3.2808,0.9571,0.6795,-0.4488
1.043502,1.2877,0.0064,-3.2808,0.8924,0.6868,-0.4830
1.044030,0.7460,0.1537,-3.1322,0.8924,0.6868,-0.4830
1.048433,0.7460,0.1537,-3.1322,0.8924,0.6868,-0.4830
1.048892,0.7460,0.1537,-3.1322,0.8349,0.6966,-0.5001
1.049349,0.0368,0.3660,-2.5298,0.8349,0.6966,-0.5001
1.049770,0.0368,0.3660,-2.5298,0.8349,0.6966,-0.5001
1.050091,0.0368,0.3660,-2.5298,0.7897,0.6953,-0.5026
1.050548,-0.3390,0.5316,-2.0508,0.7897,0.6953,-0.5026
1.051007,-0.3390,0.5316,-2.0508,0.7897,0.6953,-0.5026
1.051330,-0.3390,0.5316,-2.0508,0.7591,0.6930,-0.4953
1.051865,-0.4465,0.7266,-1.5935,0.7591,0.6930,-0.4953
1.052478,-0.4465,0.7266,-1.5935,0.7591,0.6930,-0.4953
1.052784,-0.4465,0.7266,-1.5935,0.7421,0.6808,-0.4879
1.053187,-0.5481,0.8689,-1.1107,0.7421,0.6808,-0.4879
1.058174,-0.5481,0.8689,-1.1107,0.7421,0.6808,-0.4879
1.058885,-0.5481,0.8689,-1.1107,0.7384,0.6685,-0.4769
1.059615,-0.3698,0.9652,-1.0348,0.7384,0.6685,-0.4769
1.060332,-0.3698,0.9652,-1.0348,0.7384,0.6685,-0.4769
1.060812,-0.3698,0.9652,-1.0348,0.7384,0.6575,-0.4756
1.061403,0.0071,1.0530,-1.1836,0.7384,0.6575,-0.4756
1.061976,0.0071,1.0530,-1.1836,0.7384,0.6575,-0.4756
1.062410,0.0071,1.0530,-1.1836,0.7286,0.6698,-0.4854
1.062995,0.3858,0.9561,-1.4993,0.7286,0.6698,-0.4854
1.063627,0.3858,0.9561,-1.4993,0.7286,0.6698,-0.4854
1.064146,0.3858,0.9561,-1.4993,0.7151,0.6930,-0.5038
1.064717,0.4672,0.8851,-1.7431,0.7151,0.6930,-0.5038
1.065363,0.4672,0.8851,-1.7431,0.7151,0.6930,-0.5038
1.065828,0.4672,0.8851,-1.7431,0.6896,0.7186,-0.5221
1.066428,0.5195,0.8278,-2.0732,0.6896,0.7186,-0.5221
1.067039,0.5195,0.8278,-2.0732,0.6896,0.7186,-0.5221
1.067469,0.5195,0.8278,-2.0732,0.6566,0.7565,-0.5429
1.068114,0.4538,0.7232,-2.1783,0.6566,0.7565,-0.5429
1.068793,0.4538,0.7232,-2.1783,0.6566,0.7565,-0.5429
1.069254,0.4538,0.7232,-2.1783,0.6198,0.7858,-0.5599
1.069793,0.2466,0.7099,-2.2122,0.6198,0.7858,-0.5599
1.078243,0.2466,0.7099,-2.2122,0.6198,0.7858,-0.5599
1.079118,0.2466,0.7099,-2.2122,0.5833,0.8078,-0.5709
1.080119,0.0154,0.6607,-2.2200,0.5833,0.8078,-0.5709
1.080700,0.0154,0.6607,-2.2200,0.5833,0.8078,-0.5709
1.081029,0.0154,0.6607,-2.2200,0.5453,0.8346,-0.5783
1.081458,-0.2642,0.6921,-2.0010,0.5453,0.8346,-0.5783
1.081887,-0.2642,0.6921,-2.0010,0.5453,0.8346,-0.5783
1.082202,-0.2642,0.6921,-2.0010,0.5125,0.8493,-0.5771
1.082619,-0.3541,0.8167,-1.8591,0.5125,0.8493,-0.5771
1.083079,-0.3541,0.8167,-1.8591,0.5125,0.8493,-0.5771
1.083343,-0.3541,0.8167,-1.8591,0.4795,0.8628,-0.5771
1.083754,-0.0422,0.8864,-1.9185,0.4795,0.8628,-0.5771
1.084508,-0.0422,0.8864,-1.9185,0.4795,0.8628,-0.5771
1.084809,-0.0422,0.8864,-1.9185,0.4440,0.8848,-0.5844
1.085215,-0.1170,0.9694,-1.8880,0.4440,0.8848,-0.5844
1.085621,-0.1170,0.9694,-1.8880,0.4440,0.8848,-0.5844
1.085884,-0.1170,0.9694,-1.8880,0.4085,0.9043,-0.5906
1.086232,-0.0890,0.9805,-1.9079,0.4085,0.9043,-0.5906
1.086566,-0.0890,0.9805,-1.9079,0.4085,0.9043,-0.5906
1.086903,-0.0890,0.9805,-1.9079,0.3695,0.9299,-0.5966
1.087336,-0.2072,0.9986,-1.7744,0.3695,0.9299,-0.5966
1.089753,-0.2072,0.9986,-1.7744,0.3695,0.9299,-0.5966
1.090025,-0.2072,0.9986,-1.7744,0.3327,0.9386,-0.6051
1.090422,-0.2426,1.0168,-1.6873,0.3327,0.9386,-0.6051
1.090791,-0.2426,1.0168,-1.6873,0.3327,0.9386,-0.6051
1.091027,-0.2426,1.0168,-1.6873,0.2999,0.9336,-0.6161
1.092755,-0.0791,0.9538,-1.5400,0.2999,0.9336,-0.6161
1.093443,-0.0791,0.9538,-1.5400,0.2999,0.9336,-0.6161
1.093956,-0.0791,0.9538,-1.5400,0.2692,0.9214,-0.6309
1.094516,-0.2688,0.9033,-1.2270,0.2692,0.9214,-0.6309
1.094910,-0.2688,0.9033,-1.2270,0.2692,0.9214,-0.6309
1.095128,-0.2688,0.9033,-1.2270,0.2424,0.8909,-0.6406
1.095434,-0.2968,0.9597,-1.0111,0.2424,0.8909,-0.6406
1.098703,-0.2968,0.9597,-1.0111,0.2424,0.8909,-0.6406
1.099017,-0.2968,0.9597,-1.0111,0.2217,0.8408,-0.6491
1.099394,-0.3526,0.9510,-0.5933,0.2217,0.8408,-0.6491
1.099751,-0.3526,0.9510,-0.5933,0.2217,0.8408,-0.6491
1.100013,-0.3526,0.9510,-0.5933,0.2106,0.7785,-0.6564
1.100325,-0.2894,0.8842,-0.1886,0.2106,0.7785,-0.6564
1.101898,-0.2894,0.8842,-0.1886,0.2106,0.7785,-0.6564
1.102260,-0.2894,0.8842,-0.1886,0.2119,0.7040,-0.6626
1.102965,-0.5167,0.8275,0.3307,0.2119,0.7040,-0.6626
1.105245,-0.5167,0.8275,0.3307,0.2119,0.7040,-0.6626
1.105490,-0.5167,0.8275,0.3307,0.2265,0.6111,-0.6614
1.105787,-0.7536,0.8555,0.8211,0.2265,0.6111,-0.6614
1.106628,-0.7536,0.8555,0.8211,0.2265,0.6111,-0.6614
1.106858,-0.7536,0.8555,0.8211,0.2571,0.4914,-0.6504
1.107186,-0.8816,0.8684,1.2758,0.2571,0.4914,-0.6504
1.108965,-0.8816,0.8684,1.2758,0.2571,0.4914,-0.6504
1.109212,-0.8816,0.8684,1.2758,0.2974,0.3717,-0.6369
1.109509,-0.8576,0.9831,1.4193,0.2974,0.3717,-0.6369
1.112098,-0.8576,0.9831,1.4193,0.2974,0.3717,-0.6369
1.112712,-0.8576,0.9831,1.4193,0.3462,0.2494,-0.6223
1.113434,-0.8376,0.9915,1.5526,0.3462,0.2494,-0.6223
1.114114,-0.8376,0.9915,1.5526,0.3462,0.2494,-0.6223
1.114460,-0.8376,0.9915,1.5526,0.4012,0.1334,-0.6064
1.114805,-0.8902,1.0744,1.7450,0.4012,0.1334,-0.6064
1.116197,-0.8902,1.0744,1.7450,0.4012,0.1334,-0.6064
1.116484,-0.8902,1.0744,1.7450,0.4610,0.0210,-0.5906
1.116800,-0.6528,1.0930,1.7209,0.4610,0.0210,-0.5906
1.118518,-0.6528,1.0930,1.7209,0.4610,0.0210,-0.5906
1.119065,-0.6528,1.0930,1.7209,0.5136,-0.0584,-0.5771
1.119995,-0.1184,1.2783,0.6965,0.5136,-0.0584,-0.5771
1.121527,-0.1184,1.2783,0.6965,0.5136,-0.0584,-0.5771
1.121841,-0.1184,1.2783,0.6965,0.5466,-0.0950,-0.5710
1.122291,-0.0656,1.2039,0.2291,0.5466,-0.0950,-0.5710
1.123317,-0.0656,1.2039,0.2291,0.5466,-0.0950,-0.5710
1.123636,-0.0656,1.2039,0.2291,0.5845,-0.1354,-0.5600
1.124071,-0.9130,0.9363,1.7997,0.5845,-0.1354,-0.5600
1.125576,-0.9130,0.9363,1.7997,0.5845,-0.1354,-0.5600
1.125879,-0.9130,0.9363,1.7997,0.6639,-0.2478,-0.5306
1.126383,-1.3243,0.7964,3.7252,0.6639,-0.2478,-0.5306
1.130231,-1.3243,0.7964,3.7252,0.6639,-0.2478,-0.5306
1.130833,-1.3243,0.7964,3.7252,0.7604,-0.3578,-0.4940
1.131535,-1.0936,0.9766,2.7014,0.7604,-0.3578,-0.4940
1.132254,-1.0936,0.9766,2.7014,0.7604,-0.3578,-0.4940
1.132551,-1.0936,0.9766,2.7014,0.8569,-0.4273,-0.4623
1.132978,-1.1352,0.9570,2.9506,0.8569,-0.4273,-0.4623
1.133411,-1.1352,0.9570,2.9506,0.8569,-0.4273,-0.4623
1.133689,-1.1352,0.9570,2.9506,0.9571,-0.4909,-0.4280
1.134042,-1.0104,0.9418,3.5349,0.9571,-0.4909,-0.4280
1.136599,-1.0104,0.9418,3.5349,0.9571,-0.4909,-0.4280
1.137057,-1.0104,0.9418,3.5349,1.0670,-0.5409,-0.3988
1.137684,-1.2155,0.8352,3.8492,1.0670,-0.5409,-0.3988
1.138297,-1.2155,0.8352,3.8492,1.0670,-0.5409,-0.3988
1.138706,-1.2155,0.8352,3.8492,1.1697,-0.5606,-0.3743
1.139166,-1.1004,0.8019,3.2939,1.1697,-0.5606,-0.3743
1.141202,-1.1004,0.8019,3.2939,1.1697,-0.5606,-0.3743
1.141661,-1.1004,0.8019,3.2939,1.2515,-0.5386,-0.3548
1.142255,-1.0483,0.7211,2.4917,1.2515,-0.5386,-0.3548
1.142837,-1.0483,0.7211,2.4917,1.2515,-0.5386,-0.3548
1.143208,-1.0483,0.7211,2.4917,1.3040,-0.4933,-0.3352
1.143819,-0.7385,0.7468,1.6807,1.3040,-0.4933,-0.3352
1.148479,-0.7385,0.7468,1.6807,1.3040,-0.4933,-0.3352
1.149109,-0.7385,0.7468,1.6807,1.3346,-0.4444,-0.3217
1.149786,-0.4716,0.6127,1.3140,1.3346,-0.4444,-0.3217
1.150509,-0.4716,0.6127,1.3140,1.3346,-0.4444,-0.3217
1.150998,-0.4716,0.6127,1.3140,1.3431,-0.3968,-0.3108
1.151677,-0.5177,0.5276,0.5523,1.3431,-0.3968,-0.3108
1.152439,-0.5177,0.5276,0.5523,1.3431,-0.3968,-0.3108
1.152863,-0.5177,0.5276,0.5523,1.3321,-0.3308,-0.2937
1.153413,-0.4804,0.4950,-0.3316,1.3321,-0.3308,-0.2937
1.155216,-0.4804,0.4950,-0.3316,1.3321,-0.3308,-0.2937
1.155567,-0.4804,0.4950,-0.3316,1.3053,-0.2575,-0.2740
1.156014,-0.4432,0.5101,-0.8212,1.3053,-0.2575,-0.2740
1.156489,-0.3382,0.5770,-1.0492,1.3053,-0.2575,-0.2740
1.156981,-0.3382,0.5770,-1.0492,1.3053,-0.2575,-0.2740
1.157284,-0.3382,0.5770,-1.0492,1.2686,-0.1940,-0.2545
1.157693,-0.3382,0.5770,-1.0492,1.2686,-0.1940,-0.2545
1.158001,-0.3382,0.5770,-1.0492,1.2235,-0.1402,-0.2375
1.158420,-0.0435,0.6820,-1.2573,1.2235,-0.1402,-0.2375
1.158862,-0.0435,0.6820,-1.2573,1.2235,-0.1402,-0.2375
1.159254,-0.0435,0.6820,-1.2573,1.1831,-0.1048,-0.2203
1.159691,-0.1021,0.8871,-1.1712,1.1831,-0.1048,-0.2203
1.164922,-0.1021,0.8871,-1.1712,1.1831,-0.1048,-0.2203
1.165511,0.0480,1.0752,-1.1874,1.1831,-0.1048,-0.2203
1.166114,0.0480,1.0752,-1.1874,1.1465,-0.0840,-0.2057
1.166684,0.0480,1.0752,-1.1874,1.1465,-0.0840,-0.2057
1.167139,0.0480,1.0752,-1.1874,1.1135,-0.0707,-0.1947
1.168000,0.2906,1.2163,-1.0522,1.1135,-0.0707,-0.1947
1.168610,0.2906,1.2163,-1.0522,1.1135,-0.0707,-0.1947
1.168876,0.2906,1.2163,-1.0522,1.0867,-0.0608,-0.1935
1.169266,0.5540,1.3745,-1.1342,1.0867,-0.0608,-0.1935
1.169630,0.5540,1.3745,-1.1342,1.0867,-0.0608,-0.1935
1.169894,0.5540,1.3745,-1.1342,1.0622,-0.0474,-0.2020
1.170320,0.7551,1.5039,-1.2008,1.0622,-0.0474,-0.2020
1.172079,0.7551,1.5039,-1.2008,1.0622,-0.0474,-0.2020
1.172443,0.7551,1.5039,-1.2008,1.0365,-0.0242,-0.2167
1.172867,1.0436,1.4111,-1.3988,1.0365,-0.0242,-0.2167
1.173318,1.0436,1.4111,-1.3988,1.0365,-0.0242,-0.2167
1.173605,1.0436,1.4111,-1.3988,0.9937,0.0418,-0.2508
1.173988,1.0282,1.2363,-2.0062,0.9937,0.0418,-0.2508
1.178031,1.0282,1.2363,-2.0062,0.9937,0.0418,-0.2508
1.178372,1.0282,1.2363,-2.0062,0.9302,0.1358,-0.2948
1.178862,1.0318,1.0888,-1.8011,0.9302,0.1358,-0.2948
1.180999,1.0318,1.0888,-1.8011,0.9302,0.1358,-0.2948
1.181669,1.0318,1.0888,-1.8011,0.8716,0.2043,-0.3376
1.182241,1.1817,0.9982,-1.7096,0.8716,0.2043,-0.3376
1.182799,1.2177,0.8403,-1.5326,0.8716,0.2043,-0.3376
1.183394,1.2177,0.8403,-1.5326,0.8716,0.2043,-0.3376
1.183790,1.2177,0.8403,-1.5326,0.8166,0.2691,-0.3803
1.184494,1.2177,0.8403,-1.5326,0.8166,0.2691,-0.3803
1.184923,1.2177,0.8403,-1.5326,0.7666,0.3252,-0.4280
1.185288,1.6440,0.7773,-1.7702,0.7666,0.3252,-0.4280
1.185873,1.6440,0.7773,-1.7702,0.7666,0.3252,-0.4280
1.186238,1.6440,0.7773,-1.7702,0.7201,0.3912,-0.4818
1.186784,1.6168,0.8355,-1.6595,0.7201,0.3912,-0.4818
1.187354,1.6168,0.8355,-1.6595,0.7201,0.3912,-0.4818
1.187719,1.6168,0.8355,-1.6595,0.6773,0.4377,-0.5318
1.188279,1.3911,0.8277,-1.1676,0.6773,0.4377,-0.5318
1.192516,1.3911,0.8277,-1.1676,0.6773,0.4377,-0.5318
1.192875,1.3911,0.8277,-1.1676,0.6431,0.4499,-0.5881
1.193441,1.4278,1.0866,-1.0413,0.6431,0.4499,-0.5881
1.193979,1.4278,1.0866,-1.0413,0.6431,0.4499,-0.5881
1.194313,1.4278,1.0866,-1.0413,0.6113,0.4400,-0.6431
1.194774,1.4565,1.1975,-0.8618,0.6113,0.4400,-0.6431
1.197173,1.4565,1.1975,-0.8618,0.6113,0.4400,-0.6431
1.197689,1.4565,1.1975,-0.8618,0.5881,0.4144,-0.7017
1.198170,1.6544,1.2867,-0.7976,0.5881,0.4144,-0.7017
1.198725,1.6774,1.2987,-1.0205,0.5881,0.4144,-0.7017
1.199211,1.6774,1.2987,-1.0205,0.5881,0.4144,-0.7017
1.199530,1.6774,1.2987,-1.0205,0.5698,0.3924,-0.7677
1.200341,1.6774,1.2987,-1.0205,0.5698,0.3924,-0.7677
1.200675,1.6774,1.2987,-1.0205,0.5503,0.3740,-0.8374
1.201198,1.5135,1.2889,-0.8793,0.5503,0.3740,-0.8374
1.201651,1.5135,1.2889,-0.8793,0.5503,0.3740,-0.8374
1.202007,1.5135,1.2889,-0.8793,0.5356,0.3422,-0.9082
1.202422,1.4202,1.1364,-0.7174,0.5356,0.3422,-0.9082
1.207508,1.4202,1.1364,-0.7174,0.5356,0.3422,-0.9082
1.208137,1.4202,1.1364,-0.7174,0.5246,0.2971,-0.9815
1.208630,1.3727,1.3398,-0.7162,0.5246,0.2971,-0.9815
1.209019,1.3727,1.3398,-0.7162,0.5246,0.2971,-0.9815
1.209282,1.3727,1.3398,-0.7162,0.5125,0.2567,-1.0450
1.209635,1.1691,1.8670,-0.7734,0.5125,0.2567,-1.0450
1.211884,1.1691,1.8670,-0.7734,0.5125,0.2567,-1.0450
1.212877,1.1691,1.8670,-0.7734,0.5002,0.2164,-1.0902
1.214043,1.0196,2.3826,-1.0131,0.5002,0.2164,-1.0902
1.214620,1.0196,2.3826,-1.0131,0.5002,0.2164,-1.0902
1.214963,1.0196,2.3826,-1.0131,0.4855,0.1798,-1.1158
1.215488,0.7378,2.8475,-1.2949,0.4855,0.1798,-1.1158
1.216048,0.7378,2.8475,-1.2949,0.4855,0.1798,-1.1158
1.216388,0.7378,2.8475,-1.2949,0.4672,0.1481,-1.1243
1.216789,0.5039,3.0324,-1.1490,0.4672,0.1481,-1.1243
1.217365,0.5039,3.0324,-1.1490,0.4672,0.1481,-1.1243
1.217735,0.5039,3.0324,-1.1490,0.4550,0.1016,-1.1195
1.218227,0.2559,3.1438,-0.8438,0.4550,0.1016,-1.1195
1.218734,0.2559,3.1438,-0.8438,0.4550,0.1016,-1.1195
1.219058,0.2559,3.1438,-0.8438,0.4537,0.0430,-1.1036
1.219500,0.0530,3.2865,-0.6427,0.4537,0.0430,-1.1036
1.223643,0.0530,3.2865,-0.6427,0.4537,0.0430,-1.1036
1.224077,0.0530,3.2865,-0.6427,0.4575,-0.0192,-1.0768
1.224528,-0.0146,3.4636,-0.4928,0.4575,-0.0192,-1.0768
1.225012,-0.0146,3.4636,-0.4928,0.4575,-0.0192,-1.0768
1.225338,-0.0146,3.4636,-0.4928,0.4660,-0.0792,-1.0425
1.225823,0.0146,3.6912,-0.6618,0.4660,-0.0792,-1.0425
1.226350,0.0146,3.6912,-0.6618,0.4660,-0.0792,-1.0425
1.226699,0.0146,3.6912,-0.6618,0.4745,-0.1243,-1.0058
1.227165,-0.0320,3.9032,-0.8925,0.4745,-0.1243,-1.0058
1.227625,-0.0320,3.9032,-0.8925,0.4745,-0.1243,-1.0058
1.228002,-0.0320,3.9032,-0.8925,0.4818,-0.1573,-0.9620
1.228442,-0.0849,3.9003,-0.7658,0.4818,-0.1573,-0.9620
1.233037,-0.0849,3.9003,-0.7658,0.4818,-0.1573,-0.9620
1.233637,-0.0849,3.9003,-0.7658,0.4990,-0.1903,-0.9118
1.234472,-0.1164,3.9124,-0.6761,0.4990,-0.1903,-0.9118
1.235134,-0.1164,3.9124,-0.6761,0.4990,-0.1903,-0.9118
1.235591,-0.1164,3.9124,-0.6761,0.5173,-0.2111,-0.8592
1.236318,-0.1750,4.0135,-0.7150,0.5173,-0.2111,-0.8592
1.236871,-0.1750,4.0135,-0.7150,0.5173,-0.2111,-0.8592
1.237195,-0.1750,4.0135,-0.7150,0.5356,-0.2160,-0.8031
1.237633,-0.0969,4.0287,-0.6812,0.5356,-0.2160,-0.8031
1.255800,-0.0969,4.0287,-0.6812,0.5356,-0.2160,-0.8031
1.256730,-0.0969,4.0287,-0.6812,0.5576,-0.2025,-0.7469
1.257588,0.0440,3.9100,-0.6557,0.5576,-0.2025,-0.7469
1.258231,0.1549,3.8289,-0.7715,0.5576,-0.2025,-0.7469
1.258807,0.1549,3.8289,-0.7715,0.5771,-0.1757,-0.6894
1.259392,0.1549,3.8289,-0.7715,0.5771,-0.1757,-0.6894
1.259787,0.1549,3.8289,-0.7715,0.5991,-0.1354,-0.6333
1.260411,0.2049,3.7069,-0.8864,0.5991,-0.1354,-0.6333
1.260995,0.2049,3.7069,-0.8864,0.5991,-0.1354,-0.6333
1.261364,0.2049,3.7069,-0.8864,0.5991,-0.1354,-0.6333
1.261727,0.2049,3.7069,-0.8864,0.6150,-0.0865,-0.5796
1.262250,0.2649,3.6418,-1.0464,0.6150,-0.0865,-0.5796
1.262883,0.2649,3.6418,-1.0464,0.6150,-0.0865,-0.5796
1.263283,0.3750,3.5919,-1.1694,0.6150,-0.0865,-0.5796
1.264014,0.3750,3.5919,-1.1694,0.6260,-0.0291,-0.5246
1.264522,0.3750,3.5919,-1.1694,0.6321,0.0381,-0.4720
1.265099,0.4539,3.5439,-1.3415,0.6321,0.0381,-0.4720
1.265711,0.4539,3.5439,-1.3415,0.6321,0.0381,-0.4720
1.266137,0.4539,3.5439,-1.3415,0.6321,0.1078,-0.4243
1.266635,0.4539,3.5439,-1.3415,0.6321,0.1078,-0.4243
1.267128,0.5449,3.4528,-1.4184,0.6321,0.1078,-0.4243
1.267752,0.5449,3.4528,-1.4184,0.6321,0.1078,-0.4243
1.268253,0.5449,3.4528,-1.4184,0.6260,0.1798,-0.3805
1.268751,0.5959,3.3328,-1.3794,0.6260,0.1798,-0.3805
1.269411,0.6720,2.9578,-0.9995,0.6260,0.1798,-0.3805
1.269944,0.6720,2.9578,-0.9995,0.6260,0.1798,-0.3805
1.270332,0.6720,2.9578,-0.9995,0.6198,0.2470,-0.3413
1.270753,0.6720,2.9578,-0.9995,0.6198,0.2470,-0.3413
1.271150,0.6720,2.9578,-0.9995,0.6187,0.3020,-0.3120
1.271696,0.7692,2.5303,-0.4536,0.6187,0.3020,-0.3120
1.272458,0.7692,2.5303,-0.4536,0.6187,0.3020,-0.3120
1.272858,0.7692,2.5303,-0.4536,0.6273,0.3472,-0.2900
1.273445,0.8875,2.0788,0.0672,0.6273,0.3472,-0.2900
1.274072,0.8875,2.0788,0.0672,0.6273,0.3472,-0.2900
1.274479,0.8875,2.0788,0.0672,0.6431,0.3839,-0.2777
1.274902,1.0339,1.7370,0.4363,0.6431,0.3839,-0.2777
1.275468,1.0339,1.7370,0.4363,0.6431,0.3839,-0.2777
1.275865,1.0339,1.7370,0.4363,0.6603,0.4192,-0.2790
1.276531,1.1260,1.4361,0.6848,0.6603,0.4192,-0.2790
1.277150,1.1260,1.4361,0.6848,0.6603,0.4192,-0.2790
1.277550,1.1260,1.4361,0.6848,0.6761,0.4547,-0.2863
1.278013,1.2047,1.2043,0.7898,0.6761,0.4547,-0.2863
1.278612,1.2047,1.2043,0.7898,0.6761,0.4547,-0.2863
1.279066,1.2047,1.2043,0.7898,0.6883,0.4840,-0.2998
1.279612,1.2908,0.9901,0.7720,0.6883,0.4840,-0.2998
1.280294,1.2908,0.9901,0.7720,0.6883,0.4840,-0.2998
1.280694,1.2908,0.9901,0.7720,0.6920,0.5158,-0.3193
1.281227,1.2966,0.8315,0.6646,0.6920,0.5158,-0.3193
1.281854,1.2966,0.8315,0.6646,0.6920,0.5158,-0.3193
1.282284,1.2966,0.8315,0.6646,0.6871,0.5415,-0.3438
1.282891,1.2002,0.7163,0.5451,0.6871,0.5415,-0.3438
1.283515,1.2002,0.7163,0.5451,0.6871,0.5415,-0.3438
1.284190,1.2002,0.7163,0.5451,0.6736,0.5646,-0.3682
1.284768,1.2137,0.6621,0.2791,0.6736,0.5646,-0.3682
1.285341,1.2137,0.6621,0.2791,0.6736,0.5646,-0.3682
1.285743,1.2137,0.6621,0.2791,0.6480,0.5866,-0.3950
1.286372,1.2623,0.5846,-0.0591,0.6480,0.5866,-0.3950
1.287001,1.2623,0.5846,-0.0591,0.6480,0.5866,-0.3950
1.287420,1.2623,0.5846,-0.0591,0.6126,0.6086,-0.4256
1.288005,1.1348,0.5341,-0.2595,0.6126,0.6086,-0.4256
1.288663,1.1348,0.5341,-0.2595,0.6126,0.6086,-0.4256
1.289057,1.1348,0.5341,-0.2595,0.5686,0.6306,-0.4500
1.289652,0.9443,0.4802,-0.3717,0.5686,0.6306,-0.4500
1.290267,0.9443,0.4802,-0.3717,0.5686,0.6306,-0.4500
1.290718,0.9443,0.4802,-0.3717,0.5235,0.6465,-0.4733
1.291310,0.7368,0.4428,-0.3855,0.5235,0.6465,-0.4733
1.291978,0.7368,0.4428,-0.3855,0.5235,0.6465,-0.4733
1.292422,0.7368,0.4428,-0.3855,0.4782,0.6575,-0.4928
1.292943,0.6071,0.3493,-0.3044,0.4782,0.6575,-0.4928
1.293541,0.6071,0.3493,-0.3044,0.4782,0.6575,-0.4928
1.293919,0.6071,0.3493,-0.3044,0.4367,0.6673,-0.5086
1.294494,0.4797,0.2323,-0.1252,0.4367,0.6673,-0.5086
1.295027,0.4797,0.2323,-0.1252,0.4367,0.6673,-0.5086
1.295435,0.4797,0.2323,-0.1252,0.4025,0.6733,-0.5270
1.296075,0.3065,0.0272,0.1107,0.4025,0.6733,-0.5270
1.296618,0.3065,0.0272,0.1107,0.4025,0.6733,-0.5270
1.297009,0.3065,0.0272,0.1107,0.3732,0.6783,-0.5466
1.297583,0.0535,-0.1494,0.3835,0.3732,0.6783,-0.5466
1.332816,0.0535,-0.1494,0.3835,0.3732,0.6783,-0.5466
1.333392,0.0535,-0.1494,0.3835,0.3548,0.6746,-0.5600
1.333869,-0.1287,-0.1301,0.6849,0.3548,0.6746,-0.5600
1.334259,-0.1287,-0.1301,0.6849,0.3548,0.6746,-0.5600
1.334536,-0.1287,-0.1301,0.6849,0.3450,0.6636,-0.5734
1.334915,-0.1632,-0.1735,0.7483,0.3450,0.6636,-0.5734
1.335322,-0.1632,-0.1735,0.7483,0.3450,0.6636,-0.5734
1.335586,-0.1632,-0.1735,0.7483,0.3377,0.6538,-0.5918
1.336080,-0.2858,-0.2577,0.8824,0.3377,0.6538,-0.5918
1.336514,-0.2858,-0.2577,0.8824,0.3377,0.6538,-0.5918
1.336786,-0.2858,-0.2577,0.8824,0.3365,0.6441,-0.6101
1.337179,-0.4374,-0.3912,0.9240,0.3365,0.6441,-0.6101
1.337586,-0.4374,-0.3912,0.9240,0.3365,0.6441,-0.6101
1.337878,-0.4374,-0.3912,0.9240,0.3365,0.6392,-0.6296
1.338242,-0.5323,-0.5005,0.9562,0.3365,0.6392,-0.6296
1.338786,-0.5323,-0.5005,0.9562,0.3365,0.6392,-0.6296
1.339067,-0.5323,-0.5005,0.9562,0.3402,0.6343,-0.6479
1.339464,-0.6912,-0.5994,0.8769,0.3402,0.6343,-0.6479
1.339866,-0.6912,-0.5994,0.8769,0.3402,0.6343,-0.6479
1.340201,-0.6912,-0.5994,0.8769,0.3402,0.6331,-0.6651
1.340668,-0.6308,-0.7416,0.7540,0.3402,0.6331,-0.6651
1.341149,-0.6308,-0.7416,0.7540,0.3402,0.6331,-0.6651
1.341430,-0.6308,-0.7416,0.7540,0.3377,0.6343,-0.6882
1.341760,-0.5661,-0.8960,0.7324,0.3377,0.6343,-0.6882
1.342431,-0.5661,-0.8960,0.7324,0.3377,0.6343,-0.6882
1.342727,-0.5661,-0.8960,0.7324,0.3340,0.6368,-0.7127
1.343143,-0.7122,-0.9242,0.5826,0.3340,0.6368,-0.7127
1.343536,-0.7122,-0.9242,0.5826,0.3340,0.6368,-0.7127
1.343805,-0.7122,-0.9242,0.5826,0.3230,0.6441,-0.7334
1.344242,-0.7955,-0.9140,0.3956,0.3230,0.6441,-0.7334
1.344779,-0.7955,-0.9140,0.3956,0.3230,0.6441,-0.7334
1.345040,-0.7955,-0.9140,0.3956,0.3084,0.6527,-0.7517
1.345391,-0.8317,-0.8982,0.2375,0.3084,0.6527,-0.7517
1.345736,-0.8317,-0.8982,0.2375,0.3084,0.6527,-0.7517
1.346000,-0.8317,-0.8982,0.2375,0.2889,0.6648,-0.7714
1.346328,-0.8079,-0.8260,-0.0461,0.2889,0.6648,-0.7714
1.346658,-0.8079,-0.8260,-0.0461,0.2889,0.6648,-0.7714
1.346879,-0.8079,-0.8260,-0.0461,0.2657,0.6758,-0.7957
1.347127,-0.8049,-0.7302,-0.2393,0.2657,0.6758,-0.7957
1.347430,-0.8049,-0.7302,-0.2393,0.2657,0.6758,-0.7957
1.347661,-0.8049,-0.7302,-0.2393,0.2375,0.6856,-0.8202
1.347996,-0.7500,-0.6118,-0.3502,0.2375,0.6856,-0.8202
1.348379,-0.7500,-0.6118,-0.3502,0.2375,0.6856,-0.8202
1.348607,-0.6575,-0.5473,-0.3677,0.2375,0.6856,-0.8202
1.350338,-0.6575,-0.5473,-0.3677,0.2069,0.6918,-0.8471
1.350744,-0.6575,-0.5473,-0.3677,0.2069,0.6918,-0.8471
1.350968,-0.6575,-0.5473,-0.3677,0.1764,0.6893,-0.8727
1.351293,-0.6499,-0.4601,-0.4294,0.1764,0.6893,-0.8727
1.351641,-0.6499,-0.4601,-0.4294,0.1764,0.6893,-0.8727
1.351896,-0.6499,-0.4601,-0.4294,0.1434,0.6783,-0.8972
1.352452,-0.5853,-0.3857,-0.5983,0.1434,0.6783,-0.8972
1.353114,-0.5853,-0.3857,-0.5983,0.1434,0.6783,-0.8972
1.353553,-0.5853,-0.3857,-0.5983,0.1092,0.6612,-0.9228
1.354083,-0.5903,-0.3104,-0.8076,0.1092,0.6612,-0.9228
1.354805,-0.5903,-0.3104,-0.8076,0.1092,0.6612,-0.9228
1.355321,-0.5903,-0.3104,-0.8076,0.0726,0.6331,-0.9460
1.355651,-0.4281,-0.2879,-0.7816,0.0726,0.6331,-0.9460
1.356024,-0.4281,-0.2879,-0.7816,0.0726,0.6331,-0.9460
1.356245,-0.4281,-0.2879,-0.7816,0.0384,0.5965,-0.9717
1.356542,-0.3088,-0.1682,-0.7810,0.0384,0.5965,-0.9717
1.356877,-0.3467,-0.1733,-0.6970,0.0384,0.5965,-0.9717
1.357267,-0.3467,-0.1733,-0.6970,0.0384,0.5965,-0.9717
1.357514,-0.3467,-0.1733,-0.6970,0.0066,0.5549,-0.9949
1.357815,-0.3467,-0.1733,-0.6970,0.0066,0.5549,-0.9949
1.358068,-0.3467,-0.1733,-0.6970,-0.0191,0.5037,-1.0132
1.358324,-0.4182,-0.1174,-0.5749,-0.0191,0.5037,-1.0132
1.358642,-0.4182,-0.1174,-0.5749,-0.0191,0.5037,-1.0132
1.358892,-0.4182,-0.1174,-0.5749,-0.0386,0.4522,-1.0193
1.359185,-0.5456,-0.1103,-0.4189,-0.0386,0.4522,-1.0193
1.359537,-0.5456,-0.1103,-0.4189,-0.0386,0.4522,-1.0193
1.359773,-0.5456,-0.1103,-0.4189,-0.0496,0.3974,-1.0218
1.360148,-0.6655,-0.1942,-0.2278,-0.0496,0.3974,-1.0218
1.360478,-0.6655,-0.1942,-0.2278,-0.0496,0.3974,-1.0218
1.360708,-0.6655,-0.1942,-0.2278,-0.0532,0.3497,-1.0170
1.361080,-0.7760,-0.2027,-0.0504,-0.0532,0.3497,-1.0170
1.361431,-0.7760,-0.2027,-0.0504,-0.0532,0.3497,-1.0170
1.361648,-0.7760,-0.2027,-0.0504,-0.0496,0.3081,-1.0059
1.361942,-0.9019,-0.2614,0.1392,-0.0496,0.3081,-1.0059
1.362315,-0.9019,-0.2614,0.1392,-0.0496,0.3081,-1.0059
1.362538,-0.9019,-0.2614,0.1392,-0.0374,0.2764,-0.9888
1.362828,-1.0489,-0.3366,0.2997,-0.0374,0.2764,-0.9888
1.363174,-1.0489,-0.3366,0.2997,-0.0374,0.2764,-0.9888
1.363402,-1.0489,-0.3366,0.2997,-0.0166,0.2544,-0.9692
1.363697,-1.0983,-0.4510,0.4751,-0.0166,0.2544,-0.9692
1.371639,-1.0983,-0.4510,0.4751,-0.0166,0.2544,-0.9692
1.372002,-1.0983,-0.4510,0.4751,0.0066,0.2446,-0.9437
1.372380,-1.1116,-0.5130,0.5360,0.0066,0.2446,-0.9437
1.372739,-1.1116,-0.5130,0.5360,0.0066,0.2446,-0.9437
1.372965,-1.1116,-0.5130,0.5360,0.0359,0.2409,-0.9155
1.373250,-1.1228,-0.6642,0.6670,0.0359,0.2409,-0.9155
1.373640,-1.1228,-0.6642,0.6670,0.0359,0.2409,-0.9155
1.373903,-1.1228,-0.6642,0.6670,0.0676,0.2434,-0.8887
1.374217,-1.1237,-0.7391,0.7064,0.0676,0.2434,-0.8887
1.374559,-1.1237,-0.7391,0.7064,0.0676,0.2434,-0.8887
1.374773,-1.1237,-0.7391,0.7064,0.1006,0.2507,-0.8606
1.375088,-0.9991,-0.6814,0.5715,0.1006,0.2507,-0.8606
1.375444,-0.9991,-0.6814,0.5715,0.1006,0.2507,-0.8606
1.375678,-0.9991,-0.6814,0.5715,0.1288,0.2604,-0.8349
1.376047,-0.9338,-0.6563,0.3958,0.1288,0.2604,-0.8349
1.380751,-0.9338,-0.6563,0.3958,0.1288,0.2604,-0.8349
1.381399,-0.9338,-0.6563,0.3958,0.1519,0.2727,-0.8080
1.382071,-0.8810,-0.6038,0.2463,0.1519,0.2727,-0.8080
1.382653,-0.8810,-0.6038,0.2463,0.1519,0.2727,-0.8080
1.383191,-0.8810,-0.6038,0.2463,0.1704,0.2775,-0.7811
1.383858,-0.7030,-0.6611,0.0761,0.1704,0.2775,-0.7811
1.384625,-0.7030,-0.6611,0.0761,0.1704,0.2775,-0.7811
1.385040,-0.7030,-0.6611,0.0761,0.1826,0.2764,-0.7604
1.385562,-0.4461,-0.6511,-0.0966,0.1826,0.2764,-0.7604
1.386197,-0.4461,-0.6511,-0.0966,0.1826,0.2764,-0.7604
1.386595,-0.4461,-0.6511,-0.0966,0.1886,0.2714,-0.7457
1.387115,-0.2434,-0.5805,-0.2990,0.1886,0.2714,-0.7457
1.387715,-0.2434,-0.5805,-0.2990,0.1886,0.2714,-0.7457
1.388172,-0.2434,-0.5805,-0.2990,0.1886,0.2569,-0.7371
1.388667,-0.1786,-0.4644,-0.4637,0.1886,0.2569,-0.7371
1.389283,-0.1786,-0.4644,-0.4637,0.1886,0.2569,-0.7371
1.389665,-0.1786,-0.4644,-0.4637,0.1837,0.2336,-0.7286
1.390237,-0.1309,-0.3239,-0.5812,0.1837,0.2336,-0.7286
1.394479,-0.1309,-0.3239,-0.5812,0.1837,0.2336,-0.7286
1.394914,-0.1309,-0.3239,-0.5812,0.1777,0.2067,-0.7176
1.395494,-0.0990,-0.1606,-0.6138,0.1777,0.2067,-0.7176
1.396170,-0.0990,-0.1606,-0.6138,0.1777,0.2067,-0.7176
1.396626,-0.0990,-0.1606,-0.6138,0.1666,0.1836,-0.7078
1.397249,-0.0179,-0.0588,-0.6458,0.1666,0.1836,-0.7078
1.397822,-0.0179,-0.0588,-0.6458,0.1666,0.1836,-0.7078
1.398341,-0.0179,-0.0588,-0.6458,0.1606,0.1566,-0.6981
1.398871,0.0370,0.0162,-0.6379,0.1606,0.1566,-0.6981
1.399452,0.0370,0.0162,-0.6379,0.1606,0.1566,-0.6981
1.399852,0.0370,0.0162,-0.6379,0.1557,0.1211,-0.6871
1.400489,0.0915,0.1336,-0.6310,0.1557,0.1211,-0.6871
1.401047,0.0915,0.1336,-0.6310,0.1557,0.1211,-0.6871
1.401440,0.0915,0.1336,-0.6310,0.1519,0.0833,-0.6797
1.401954,0.0612,0.1807,-0.5950,0.1519,0.0833,-0.6797
1.404606,0.0612,0.1807,-0.5950,0.1519,0.0833,-0.6797
1.405011,0.0612,0.1807,-0.5950,0.1532,0.0430,-0.6711
1.405406,-0.0318,0.2101,-0.5404,0.1532,0.0430,-0.6711
1.405734,-0.0318,0.2101,-0.5404,0.1532,0.0430,-0.6711
1.405966,-0.0318,0.2101,-0.5404,0.1581,0.0088,-0.6601
1.406265,-0.1656,0.3783,-0.5976,0.1581,0.0088,-0.6601
1.408688,-0.1656,0.3783,-0.5976,0.1581,0.0088,-0.6601
1.408960,-0.1656,0.3783,-0.5976,0.1629,-0.0071,-0.6467
1.409340,-0.3515,0.4457,-0.4125,0.1629,-0.0071,-0.6467
1.411800,-0.3515,0.4457,-0.4125,0.1629,-0.0071,-0.6467
1.412805,-0.3515,0.4457,-0.4125,0.1764,-0.0071,-0.6259
1.413299,-0.5972,0.3596,-0.0346,0.1764,-0.0071,-0.6259
1.414081,-0.5972,0.3596,-0.0346,0.1764,-0.0071,-0.6259
1.414620,-0.5972,0.3596,-0.0346,0.2009,0.0173,-0.5991
1.415234,-0.7505,0.1402,0.3913,0.2009,0.0173,-0.5991
1.415853,-0.7505,0.1402,0.3913,0.2009,0.0173,-0.5991
1.416347,-0.7505,0.1402,0.3913,0.2362,0.0564,-0.5636
1.416888,-0.8404,-0.0641,0.6758,0.2362,0.0564,-0.5636
1.417298,-0.8404,-0.0641,0.6758,0.2362,0.0564,-0.5636
1.417695,-0.8433,-0.2817,0.8608,0.2362,0.0564,-0.5636
1.418274,-0.8433,-0.2817,0.8608,0.2779,0.1041,-0.5270
1.426083,-0.8433,-0.2817,0.8608,0.2779,0.1041,-0.5270
1.426584,-0.8433,-0.2817,0.8608,0.3217,0.1541,-0.4854
1.427195,-0.8431,-0.4794,0.9807,0.3217,0.1541,-0.4854
1.427806,-0.8431,-0.4794,0.9807,0.3217,0.1541,-0.4854
1.428295,-0.8431,-0.4794,0.9807,0.3657,0.2056,-0.4476
1.428906,-0.8374,-0.7037,1.0443,0.3657,0.2056,-0.4476
1.429494,-0.8374,-0.7037,1.0443,0.3657,0.2056,-0.4476
1.429913,-0.8374,-0.7037,1.0443,0.4073,0.2531,-0.4158
1.430489,-0.7952,-0.8627,1.1517,0.4073,0.2531,-0.4158
1.431103,-0.7952,-0.8627,1.1517,0.4073,0.2531,-0.4158
1.431494,-0.7952,-0.8627,1.1517,0.4465,0.3032,-0.3853
1.432162,-0.7811,-0.9351,1.1633,0.4465,0.3032,-0.3853
1.432805,-0.7811,-0.9351,1.1633,0.4465,0.3032,-0.3853
1.433222,-0.7811,-0.9351,1.1633,0.4782,0.3534,-0.3583
1.433768,-0.6794,-0.9720,1.1220,0.4782,0.3534,-0.3583
1.434274,-0.6794,-0.9720,1.1220,0.4782,0.3534,-0.3583
1.434673,-0.6794,-0.9720,1.1220,0.5038,0.3997,-0.3388
1.435228,-0.6162,-0.9833,1.0499,0.5038,0.3997,-0.3388
1.435833,-0.6162,-0.9833,1.0499,0.5038,0.3997,-0.3388
1.436314,-0.6162,-0.9833,1.0499,0.5185,0.4401,-0.3217
1.436804,-0.4686,-0.9657,0.9151,0.5185,0.4401,-0.3217
1.437817,-0.4686,-0.9657,0.9151,0.5185,0.4401,-0.3217
1.438237,-0.4686,-0.9657,0.9151,0.5222,0.4632,-0.3070
1.438852,-0.4046,-0.9441,0.7340,0.5222,0.4632,-0.3070
1.439404,-0.4046,-0.9441,0.7340,0.5222,0.4632,-0.3070
1.439648,-0.4046,-0.9441,0.7340,0.5136,0.4718,-0.2985
1.439985,-0.3814,-0.9334,0.5247,0.5136,0.4718,-0.2985
1.441406,-0.3814,-0.9334,0.5247,0.5136,0.4718,-0.2985
1.441881,-0.3814,-0.9334,0.5247,0.4953,0.4669,-0.2912
1.442517,-0.3033,-0.9494,0.3859,0.4953,0.4669,-0.2912
1.445003,-0.3033,-0.9494,0.3859,0.4953,0.4669,-0.2912
1.445520,-0.3033,-0.9494,0.3859,0.4685,0.4462,-0.2852
1.445888,-0.1626,-0.9217,0.2328,0.4685,0.4462,-0.2852
1.446247,-0.1626,-0.9217,0.2328,0.4685,0.4462,-0.2852
1.446476,-0.1626,-0.9217,0.2328,0.4367,0.4144,-0.2875
1.446742,-0.0566,-0.8573,0.0494,0.4367,0.4144,-0.2875
1.450735,-0.0566,-0.8573,0.0494,0.4367,0.4144,-0.2875
1.450991,-0.0566,-0.8573,0.0494,0.3988,0.3765,-0.2912
1.451351,-0.0268,-0.7774,-0.0443,0.3988,0.3765,-0.2912
1.451702,-0.0268,-0.7774,-0.0443,0.3988,0.3765,-0.2912
1.451960,-0.0268,-0.7774,-0.0443,0.3597,0.3301,-0.2998
1.452262,0.0510,-0.7427,-0.0808,0.3597,0.3301,-0.2998
1.452602,0.0510,-0.7427,-0.0808,0.3597,0.3301,-0.2998
1.452835,0.0510,-0.7427,-0.0808,0.3230,0.2799,-0.3132
1.453089,0.1477,-0.7139,-0.1439,0.3230,0.2799,-0.3132
1.454943,0.1477,-0.7139,-0.1439,0.3230,0.2799,-0.3132
1.455230,0.1477,-0.7139,-0.1439,0.2852,0.2324,-0.3340
1.455669,0.1884,-0.7083,-0.1698,0.2852,0.2324,-0.3340
1.457197,0.1884,-0.7083,-0.1698,0.2852,0.2324,-0.3340
1.457524,0.1884,-0.7083,-0.1698,0.2522,0.1823,-0.3585
1.457879,0.1873,-0.7091,-0.2174,0.2522,0.1823,-0.3585
1.460859,0.1873,-0.7091,-0.2174,0.2522,0.1823,-0.3585
1.461500,0.1873,-0.7091,-0.2174,0.2192,0.1371,-0.3840
1.462338,0.0810,-0.8130,-0.1337,0.2192,0.1371,-0.3840
1.462768,0.0810,-0.8130,-0.1337,0.2192,0.1371,-0.3840
1.463018,0.0810,-0.8130,-0.1337,0.1959,0.1016,-0.4060
1.463300,-0.0971,-0.8813,0.0539,0.1959,0.1016,-0.4060
1.464465,-0.0971,-0.8813,0.0539,0.1959,0.1016,-0.4060
1.464742,-0.0971,-0.8813,0.0539,0.1826,0.0784,-0.4220
1.465094,-0.3111,-0.9294,0.3864,0.1826,0.0784,-0.4220
1.466627,-0.3111,-0.9294,0.3864,0.1826,0.0784,-0.4220
1.467153,-0.3111,-0.9294,0.3864,0.1814,0.0736,-0.4305
1.467750,-0.4860,-0.9148,0.6233,0.1814,0.0736,-0.4305
1.469479,-0.4860,-0.9148,0.6233,0.1814,0.0736,-0.4305
1.469799,-0.4860,-0.9148,0.6233,0.1886,0.0808,-0.4330
1.470189,-0.5916,-0.9584,0.7281,0.1886,0.0808,-0.4330
1.471597,-0.5916,-0.9584,0.7281,0.1886,0.0808,-0.4330
1.472002,-0.5916,-0.9584,0.7281,0.1972,0.0943,-0.4280
1.472409,-0.7140,-0.9953,0.7871,0.1972,0.0943,-0.4280
1.473744,-0.7140,-0.9953,0.7871,0.1972,0.0943,-0.4280
1.474101,-0.8150,-0.9477,0.8431,0.1972,0.0943,-0.4280
1.474748,-0.8150,-0.9477,0.8431,0.2119,0.1114,-0.4146
1.478160,-0.8150,-0.9477,0.8431,0.2119,0.1114,-0.4146
1.478824,-0.8150,-0.9477,0.8431,0.2277,0.1298,-0.3975
1.479570,-0.8878,-0.9045,0.8045,0.2277,0.1298,-0.3975
1.480348,-0.8878,-0.9045,0.8045,0.2277,0.1298,-0.3975
1.480907,-0.8878,-0.9045,0.8045,0.2412,0.1541,-0.3780
1.481575,-0.8951,-0.8328,0.7363,0.2412,0.1541,-0.3780
1.482328,-0.8951,-0.8328,0.7363,0.2412,0.1541,-0.3780
1.482802,-0.8951,-0.8328,0.7363,0.2559,0.1749,-0.3535
1.483212,-0.9118,-0.7277,0.6763,0.2559,0.1749,-0.3535
1.483991,-0.9118,-0.7277,0.6763,0.2559,0.1749,-0.3535
1.484548,-0.9118,-0.7277,0.6763,0.2681,0.1909,-0.3255
1.485304,-0.8606,-0.5751,0.5843,0.2681,0.1909,-0.3255
1.486029,-0.8606,-0.5751,0.5843,0.2681,0.1909,-0.3255
1.486547,-0.8606,-0.5751,0.5843,0.2779,0.1969,-0.2985
1.487136,-0.7984,-0.3734,0.4612,0.2779,0.1969,-0.2985
1.488121,-0.7984,-0.3734,0.4612,0.2779,0.1969,-0.2985
1.488609,-0.7984,-0.3734,0.4612,0.2827,0.1957,-0.2692
1.489144,-0.6355,-0.2482,0.3152,0.2827,0.1957,-0.2692
1.493973,-0.6355,-0.2482,0.3152,0.2827,0.1957,-0.2692
1.494404,-0.6355,-0.2482,0.3152,0.2839,0.1847,-0.2447
1.495106,-0.4119,-0.0693,0.1849,0.2839,0.1847,-0.2447
1.495747,-0.4119,-0.0693,0.1849,0.2839,0.1847,-0.2447
1.496187,-0.4119,-0.0693,0.1849,0.2852,0.1616,-0.2240
1.496701,-0.1020,0.1030,0.0018,0.2852,0.1616,-0.2240
1.497261,-0.1020,0.1030,0.0018,0.2852,0.1616,-0.2240
1.497637,-0.1020,0.1030,0.0018,0.2802,0.1321,-0.2142
1.498197,0.1991,0.2351,-0.2277,0.2802,0.1321,-0.2142
1.498796,0.1991,0.2351,-0.2277,0.2802,0.1321,-0.2142
1.499190,0.1991,0.2351,-0.2277,0.2742,0.0956,-0.2105
1.499779,0.5212,0.3278,-0.4195,0.2742,0.0956,-0.2105
1.500490,0.5212,0.3278,-0.4195,0.2742,0.0956,-0.2105
1.500899,0.5212,0.3278,-0.4195,0.2692,0.0565,-0.2130
1.501373,0.7041,0.4514,-0.5547,0.2692,0.0565,-0.2130
1.504244,0.7041,0.4514,-0.5547,0.2692,0.0565,-0.2130
1.504980,0.7041,0.4514,-0.5547,0.2657,0.0161,-0.2179
1.505588,0.8714,0.6042,-0.6137,0.2657,0.0161,-0.2179
1.506282,0.8714,0.6042,-0.6137,0.2657,0.0161,-0.2179
1.506736,0.8714,0.6042,-0.6137,0.2669,-0.0242,-0.2265
1.507309,0.9556,0.7427,-0.6184,0.2669,-0.0242,-0.2265
1.508111,0.9556,0.7427,-0.6184,0.2669,-0.0242,-0.2265
1.509166,0.9556,0.7427,-0.6184,0.2705,-0.0608,-0.2362
1.509909,1.0622,0.8904,-0.5829,0.2705,-0.0608,-0.2362
1.510478,1.0622,0.8904,-0.5829,0.2705,-0.0608,-0.2362
1.510936,1.0622,0.8904,-0.5829,0.2839,-0.0914,-0.2447
1.511455,1.2075,1.0109,-0.5131,0.2839,-0.0914,-0.2447
1.512099,1.2075,1.0109,-0.5131,0.2839,-0.0914,-0.2447
1.512496,1.2075,1.0109,-0.5131,0.3022,-0.1220,-0.2558
1.512889,1.3093,1.1154,-0.4194,0.3022,-0.1220,-0.2558
1.517355,1.3093,1.1154,-0.4194,0.3022,-0.1220,-0.2558
1.517715,1.3093,1.1154,-0.4194,0.3267,-0.1452,-0.2655
1.518148,1.3978,1.2177,-0.3634,0.3267,-0.1452,-0.2655
1.518423,1.3978,1.2177,-0.3634,0.3267,-0.1452,-0.2655
1.518694,1.3978,1.2177,-0.3634,0.3548,-0.1695,-0.2753
1.519020,1.4230,1.3408,-0.3093,0.3548,-0.1695,-0.2753
1.519392,1.4230,1.3408,-0.3093,0.3548,-0.1695,-0.2753
1.519648,1.4230,1.3408,-0.3093,0.3877,-0.1928,-0.2863
1.520025,1.4748,1.4039,-0.2641,0.3877,-0.1928,-0.2863
1.522136,1.4748,1.4039,-0.2641,0.3877,-0.1928,-0.2863
1.522733,1.4748,1.4039,-0.2641,0.4220,-0.2123,-0.2948
1.523475,1.4872,1.4596,-0.2320,0.4220,-0.2123,-0.2948
1.524268,1.4872,1.4596,-0.2320,0.4220,-0.2123,-0.2948
1.524586,1.4872,1.4596,-0.2320,0.4550,-0.2270,-0.3070
1.524924,1.5624,1.4684,-0.1886,0.4550,-0.2270,-0.3070
1.528824,1.6543,1.4332,-0.1208,0.4550,-0.2270,-0.3070
1.530530,1.6543,1.4332,-0.1208,0.4868,-0.2343,-0.3205
1.531154,1.6543,1.4332,-0.1208,0.4868,-0.2343,-0.3205
1.531464,1.6543,1.4332,-0.1208,0.5197,-0.2368,-0.3376
1.531879,1.6543,1.4332,-0.1208,0.5197,-0.2368,-0.3376
1.532208,1.6803,1.3582,-0.0027,0.5197,-0.2368,-0.3376
1.532861,1.6803,1.3582,-0.0027,0.5197,-0.2368,-0.3376
1.533316,1.6803,1.3582,-0.0027,0.5478,-0.2405,-0.3560
1.533906,1.6301,1.4002,0.1121,0.5478,-0.2405,-0.3560
1.534521,1.6301,1.4002,0.1121,0.5478,-0.2405,-0.3560
1.534934,1.6301,1.4002,0.1121,0.5723,-0.2478,-0.3730
1.535486,1.6346,1.3887,0.2176,0.5723,-0.2478,-0.3730
1.536132,1.6346,1.3887,0.2176,0.5723,-0.2478,-0.3730
1.536551,1.6346,1.3887,0.2176,0.5955,-0.2636,-0.3963
1.537087,1.6245,1.4083,0.3052,0.5955,-0.2636,-0.3963
1.537686,1.6245,1.4083,0.3052,0.5955,-0.2636,-0.3963
1.538124,1.6245,1.4083,0.3052,0.6138,-0.2831,-0.4183
1.538699,1.5568,1.4158,0.3342,0.6138,-0.2831,-0.4183
1.550406,1.5568,1.4158,0.3342,0.6138,-0.2831,-0.4183
1.550781,1.5568,1.4158,0.3342,0.6248,-0.3039,-0.4426
1.551299,1.4354,1.4055,0.3708,0.6248,-0.3039,-0.4426
1.551795,1.4354,1.4055,0.3708,0.6248,-0.3039,-0.4426
1.552180,1.4354,1.4055,0.3708,0.6309,-0.3246,-0.4658
1.552652,1.2656,1.3053,0.4465,0.6309,-0.3246,-0.4658
1.553066,1.2656,1.3053,0.4465,0.6309,-0.3246,-0.4658
1.553390,1.2656,1.3053,0.4465,0.6333,-0.3393,-0.4903
1.553829,1.0180,1.1310,0.5792,0.6333,-0.3393,-0.4903
1.554321,1.0180,1.1310,0.5792,0.6333,-0.3393,-0.4903
1.554636,1.0180,1.1310,0.5792,0.6346,-0.3466,-0.5123
1.555044,0.7747,0.9354,0.7464,0.6346,-0.3466,-0.5123
1.555504,0.7747,0.9354,0.7464,0.6346,-0.3466,-0.5123
1.555837,0.7747,0.9354,0.7464,0.6309,-0.3369,-0.5331
1.556333,0.4829,0.7459,0.9147,0.6309,-0.3369,-0.5331
1.556815,0.4829,0.7459,0.9147,0.6309,-0.3369,-0.5331
1.557166,0.4829,0.7459,0.9147,0.6236,-0.3028,-0.5526
1.557634,0.3008,0.5141,0.9736,0.6236,-0.3028,-0.5526
1.558467,0.3008,0.5141,0.9736,0.6236,-0.3028,-0.5526
1.558876,0.3008,0.5141,0.9736,0.6065,-0.2380,-0.5698
1.559366,0.0498,0.2895,1.2058,0.6065,-0.2380,-0.5698
1.559861,0.0498,0.2895,1.2058,0.6065,-0.2380,-0.5698
1.560418,0.0498,0.2895,1.2058,0.5870,-0.1672,-0.5783
1.560877,-0.1998,0.0785,1.6364,0.5870,-0.1672,-0.5783
1.561399,-0.1998,0.0785,1.6364,0.5870,-0.1672,-0.5783
1.561742,-0.1998,0.0785,1.6364,0.5637,-0.1037,-0.5796
1.562134,-0.6469,-0.0951,1.7975,0.5637,-0.1037,-0.5796
1.562584,-0.6469,-0.0951,1.7975,0.5637,-0.1037,-0.5796
1.562901,-0.6469,-0.0951,1.7975,0.5343,-0.0352,-0.5686
1.563309,-1.1495,-0.2076,1.6046,0.5343,-0.0352,-0.5686
1.563791,-1.1495,-0.2076,1.6046,0.5343,-0.0352,-0.5686
1.564163,-1.1495,-0.2076,1.6046,0.4940,0.0454,-0.5441
1.564553,-1.5693,-0.2430,1.3744,0.4940,0.0454,-0.5441
1.566860,-1.5693,-0.2430,1.3744,0.4940,0.0454,-0.5441
1.567439,-1.5693,-0.2430,1.3744,0.4477,0.1382,-0.5136
1.568471,-1.7576,-0.3382,1.3137,0.4477,0.1382,-0.5136
1.568991,-1.7576,-0.3382,1.3137,0.4477,0.1382,-0.5136
1.569357,-1.7576,-0.3382,1.3137,0.3963,0.2359,-0.4781
1.569854,-1.7917,-0.3723,1.4860,0.3963,0.2359,-0.4781
1.577831,-1.7917,-0.3723,1.4860,0.3963,0.2359,-0.4781
1.578139,-1.7917,-0.3723,1.4860,0.3462,0.3277,-0.4439
1.578378,-1.7475,-0.3744,1.5531,0.3462,0.3277,-0.4439
1.578849,-1.7475,-0.3744,1.5531,0.3462,0.3277,-0.4439
1.579086,-1.7475,-0.3744,1.5531,0.2962,0.4119,-0.4146
1.579418,-1.6733,-0.4833,1.5492,0.2962,0.4119,-0.4146
1.579815,-1.6733,-0.4833,1.5492,0.2962,0.4119,-0.4146
1.580119,-1.6733,-0.4833,1.5492,0.2509,0.4767,-0.3890
1.580523,-1.5413,-0.5731,1.4171,0.2509,0.4767,-0.3890
1.580885,-1.5413,-0.5731,1.4171,0.2509,0.4767,-0.3890
1.581126,-1.5413,-0.5731,1.4171,0.2069,0.5232,-0.3693
1.581569,-1.3995,-0.6795,1.2585,0.2069,0.5232,-0.3693
1.581945,-1.3995,-0.6795,1.2585,0.2069,0.5232,-0.3693
1.582223,-1.3995,-0.6795,1.2585,0.1642,0.5562,-0.3596
1.582559,-1.1917,-0.7294,1.0263,0.1642,0.5562,-0.3596
1.582906,-1.1917,-0.7294,1.0263,0.1642,0.5562,-0.3596
1.583127,-1.1917,-0.7294,1.0263,0.1226,0.5770,-0.3560
1.583406,-1.0104,-0.6438,0.6766,0.1226,0.5770,-0.3560
1.585614,-1.0104,-0.6438,0.6766,0.1226,0.5770,-0.3560
1.586274,-1.0104,-0.6438,0.6766,0.0799,0.5805,-0.3596
1.586688,-0.7821,-0.5805,0.3135,0.0799,0.5805,-0.3596
1.588869,-0.7821,-0.5805,0.3135,0.0799,0.5805,-0.3596
1.589118,-0.7821,-0.5805,0.3135,0.0384,0.5770,-0.3706
1.589500,-0.6048,-0.4854,-0.0036,0.0384,0.5770,-0.3706
1.589869,-0.6048,-0.4854,-0.0036,0.0384,0.5770,-0.3706
1.590092,-0.6048,-0.4854,-0.0036,0.0005,0.5635,-0.3816
1.590391,-0.4524,-0.3621,-0.2985,0.0005,0.5635,-0.3816
1.593692,-0.4524,-0.3621,-0.2985,0.0005,0.5635,-0.3816
1.594333,-0.4524,-0.3621,-0.2985,-0.0386,0.5402,-0.3975
1.594874,-0.2529,-0.2115,-0.6494,-0.0386,0.5402,-0.3975
1.595628,-0.2529,-0.2115,-0.6494,-0.0386,0.5402,-0.3975
1.595883,-0.2529,-0.2115,-0.6494,-0.0814,0.5012,-0.4183
1.596257,0.0132,-0.0687,-1.1585,-0.0814,0.5012,-0.4183
1.597921,0.0132,-0.0687,-1.1585,-0.0814,0.5012,-0.4183
1.598179,0.0132,-0.0687,-1.1585,-0.1242,0.4487,-0.4439
1.598623,0.2722,0.0911,-1.3793,-0.1242,0.4487,-0.4439
1.599303,0.2722,0.0911,-1.3793,-0.1242,0.4487,-0.4439
1.599705,0.2722,0.0911,-1.3793,-0.1632,0.3961,-0.4745
1.600298,0.3941,0.2960,-1.3039,-0.1632,0.3961,-0.4745
1.601678,0.3941,0.2960,-1.3039,-0.1632,0.3961,-0.4745
1.602092,0.3941,0.2960,-1.3039,-0.1889,0.3436,-0.5063
1.602577,0.4222,0.5737,-1.2219,-0.1889,0.3436,-0.5063
1.603858,0.4222,0.5737,-1.2219,-0.1889,0.3436,-0.5063
1.604157,0.4222,0.5737,-1.2219,-0.2023,0.2874,-0.5343
1.604483,0.3694,0.8045,-1.2368,-0.2023,0.2874,-0.5343
1.606180,0.3694,0.8045,-1.2368,-0.2023,0.2874,-0.5343
1.606439,0.3694,0.8045,-1.2368,-0.2060,0.2373,-0.5551
1.607111,0.4338,0.9454,-1.1949,-0.2060,0.2373,-0.5551
1.610655,0.4338,0.9454,-1.1949,-0.2060,0.2373,-0.5551
1.611297,0.4338,0.9454,-1.1949,-0.1962,0.1981,-0.5734
1.612033,0.4036,1.0884,-1.1517,-0.1962,0.1981,-0.5734
1.612645,0.4036,1.0884,-1.1517,-0.1962,0.1981,-0.5734
1.612861,0.4036,1.0884,-1.1517,-0.1742,0.1664,-0.5856
1.613226,0.5797,1.2222,-1.1915,-0.1742,0.1664,-0.5856
1.613578,0.5797,1.2222,-1.1915,-0.1742,0.1664,-0.5856
1.613799,0.5797,1.2222,-1.1915,-0.1510,0.1419,-0.5966
1.614125,0.6923,1.4290,-1.2193,-0.1510,0.1419,-0.5966
1.615635,0.6923,1.4290,-1.2193,-0.1510,0.1419,-0.5966
1.615877,0.6923,1.4290,-1.2193,-0.1277,0.1273,-0.6051
1.616274,0.8455,1.6146,-1.2460,-0.1277,0.1273,-0.6051
1.617990,0.8455,1.6146,-1.2460,-0.1277,0.1273,-0.6051
1.618237,0.8455,1.6146,-1.2460,-0.1094,0.1163,-0.6126
1.618638,1.0624,1.7932,-1.4721,-0.1094,0.1163,-0.6126
1.620614,1.0624,1.7932,-1.4721,-0.1094,0.1163,-0.6126
1.620899,1.0624,1.7932,-1.4721,-0.1119,0.1114,-0.6161
1.621135,1.2411,2.2739,-2.1873,-0.1119,0.1114,-0.6161
1.622862,1.2411,2.2739,-2.1873,-0.1119,0.1114,-0.6161
1.623162,1.2411,2.2739,-2.1873,-0.1339,0.1114,-0.6186
1.623680,1.5088,2.6348,-2.6541,-0.1339,0.1114,-0.6186
1.626281,1.5088,2.6348,-2.6541,-0.1339,0.1114,-0.6186
1.626684,1.5088,2.6348,-2.6541,-0.1803,0.1078,-0.6211
1.626937,1.8163,2.8789,-3.0302,-0.1803,0.1078,-0.6211
1.628206,1.8163,2.8789,-3.0302,-0.1803,0.1078,-0.6211
1.628448,1.8163,2.8789,-3.0302,-0.2438,0.0980,-0.6259
1.628798,2.1246,3.1208,-3.3761,-0.2438,0.0980,-0.6259
1.629939,2.1246,3.1208,-3.3761,-0.2438,0.0980,-0.6259
1.630260,2.1246,3.1208,-3.3761,-0.3257,0.0796,-0.6394
1.630841,2.4795,3.2964,-3.5880,-0.3257,0.0796,-0.6394
1.632544,2.4795,3.2964,-3.5880,-0.3257,0.0796,-0.6394
1.633106,2.4795,3.2964,-3.5880,-0.4198,0.0564,-0.6601
1.633648,2.7907,3.3850,-3.8074,-0.4198,0.0564,-0.6601
1.635608,2.7907,3.3850,-3.8074,-0.4198,0.0564,-0.6601
1.636048,2.7907,3.3850,-3.8074,-0.5261,0.0320,-0.6907
1.636648,3.1231,3.4548,-3.9794,-0.5261,0.0320,-0.6907
1.637277,3.1231,3.4548,-3.9794,-0.5261,0.0320,-0.6907
1.637677,3.1231,3.4548,-3.9794,-0.6446,0.0113,-0.7322
1.638166,3.4807,3.6110,-4.2442,-0.6446,0.0113,-0.7322
1.640377,3.4807,3.6110,-4.2442,-0.6446,0.0113,-0.7322
1.640838,3.4807,3.6110,-4.2442,-0.7741,-0.0034,-0.7824
1.641425,3.7561,3.8229,-4.4170,-0.7741,-0.0034,-0.7824
1.642002,3.7561,3.8229,-4.4170,-0.7741,-0.0034,-0.7824
1.642367,3.7561,3.8229,-4.4170,-0.9133,-0.0157,-0.8397
1.642833,4.0204,3.8663,-4.5443,-0.9133,-0.0157,-0.8397
1.651589,4.0204,3.8663,-4.5443,-0.9133,-0.0157,-0.8397
1.652278,4.0204,3.8663,-4.5443,-1.0550,-0.0267,-0.9020
1.652788,4.2622,3.8957,-4.5891,-1.0550,-0.0267,-0.9020
1.653307,4.2622,3.8957,-4.5891,-1.0550,-0.0267,-0.9020
1.653651,4.2622,3.8957,-4.5891,-1.1980,-0.0327,-0.9717
1.654037,4.6149,3.9308,-4.6942,-1.1980,-0.0327,-0.9717
1.654513,4.6149,3.9308,-4.6942,-1.1980,-0.0327,-0.9717
1.654811,4.6149,3.9308,-4.6942,-1.3446,-0.0377,-1.0450
1.655111,4.9420,4.0210,-4.6487,-1.3446,-0.0377,-1.0450
1.656022,4.9420,4.0210,-4.6487,-1.3446,-0.0377,-1.0450
1.657094,4.9420,4.0210,-4.6487,-1.4839,-0.0437,-1.1208
1.658120,5.0776,4.0798,-4.3097,-1.4839,-0.0437,-1.1208
1.658787,5.0776,4.0798,-4.3097,-1.4839,-0.0437,-1.1208
1.659209,5.0776,4.0798,-4.3097,-1.6134,-0.0547,-1.1953
1.659865,5.1076,4.0275,-4.0364,-1.6134,-0.0547,-1.1953
1.660776,5.1076,4.0275,-4.0364,-1.6134,-0.0547,-1.1953
1.661252,5.1076,4.0275,-4.0364,-1.7320,-0.0632,-1.2624
1.661987,4.9873,3.8426,-3.7948,-1.7320,-0.0632,-1.2624
1.662753,4.9873,3.8426,-3.7948,-1.7320,-0.0632,-1.2624
1.663253,4.9873,3.8426,-3.7948,-1.8406,-0.0620,-1.3223
1.663798,4.9208,3.8120,-3.4780,-1.8406,-0.0620,-1.3223
1.664367,4.9208,3.8120,-3.4780,-1.8406,-0.0620,-1.3223
1.664668,4.9208,3.8120,-3.4780,-1.9359,-0.0547,-1.3736
1.665108,4.6772,3.5984,-2.9143,-1.9359,-0.0547,-1.3736
1.665630,4.6772,3.5984,-2.9143,-1.9359,-0.0547,-1.3736
1.665926,4.6772,3.5984,-2.9143,-2.0141,-0.0302,-1.4164
1.666333,4.5879,3.5307,-2.3997,-2.0141,-0.0302,-1.4164
1.666760,4.5879,3.5307,-2.3997,-2.0141,-0.0302,-1.4164
1.667042,4.5879,3.5307,-2.3997,-2.0703,0.0076,-1.4554
1.667402,4.1269,3.3665,-1.4346,-2.0703,0.0076,-1.4554
1.667967,4.1269,3.3665,-1.4346,-2.0703,0.0076,-1.4554
1.668286,4.1269,3.3665,-1.4346,-2.1009,0.0491,-1.4787
1.668694,3.6267,3.2695,-0.7764,-2.1009,0.0491,-1.4787
1.677476,3.6267,3.2695,-0.7764,-2.1009,0.0491,-1.4787
1.678079,3.6267,3.2695,-0.7764,-2.1131,0.0858,-1.4872
1.678841,2.8584,3.1504,0.1433,-2.1131,0.0858,-1.4872
1.680192,2.8584,3.1504,0.1433,-2.1131,0.0858,-1.4872
1.680651,2.8584,3.1504,0.1433,-2.1131,0.1163,-1.4799
1.681188,2.1004,2.9516,0.4953,-2.1131,0.1163,-1.4799
1.681847,2.1004,2.9516,0.4953,-2.1131,0.1163,-1.4799
1.682358,2.1004,2.9516,0.4953,-2.1009,0.1506,-1.4542
1.682980,1.5751,2.9369,1.0458,-2.1009,0.1506,-1.4542
1.683736,1.5751,2.9369,1.0458,-2.1009,0.1506,-1.4542
1.684348,1.5751,2.9369,1.0458,-2.0789,0.1664,-1.4224
1.684786,0.9168,2.6961,2.0496,-2.0789,0.1664,-1.4224
1.685125,0.9168,2.6961,2.0496,-2.0789,0.1664,-1.4224
1.685343,0.9168,2.6961,2.0496,-2.0483,0.1713,-1.3809
1.685666,0.3703,2.7629,2.2302,-2.0483,0.1713,-1.3809
1.686007,0.3703,2.7629,2.2302,-2.0483,0.1713,-1.3809
1.686223,0.3703,2.7629,2.2302,-2.0226,0.1946,-1.3321
1.686602,-0.0282,2.9793,2.1835,-2.0226,0.1946,-1.3321
1.686941,-0.0282,2.9793,2.1835,-2.0226,0.1946,-1.3321
1.687164,-0.0282,2.9793,2.1835,-1.9994,0.2164,-1.2808
1.687459,-0.4980,3.1256,2.1329,-1.9994,0.2164,-1.2808
1.687822,-0.4980,3.1256,2.1329,-1.9994,0.2164,-1.2808
1.688107,-0.4980,3.1256,2.1329,-1.9921,0.2471,-1.2258
1.688427,-1.0581,3.2039,1.8266,-1.9921,0.2471,-1.2258
1.691191,-1.0581,3.2039,1.8266,-1.9921,0.2471,-1.2258
1.691453,-1.0581,3.2039,1.8266,-1.9994,0.2947,-1.1660
1.691805,-1.0203,3.4239,1.1324,-1.9994,0.2947,-1.1660
1.692859,-1.0203,3.4239,1.1324,-1.9994,0.2947,-1.1660
1.693355,-1.0203,3.4239,1.1324,-2.0166,0.3545,-1.1146
1.694134,-0.3294,3.9071,0.9879,-2.0166,0.3545,-1.1146
1.694784,-0.3294,3.9071,0.9879,-2.0166,0.3545,-1.1146
1.695246,-0.3294,3.9071,0.9879,-2.0251,0.4327,-1.1048
1.695892,1.7773,4.5561,1.8760,-2.0251,0.4327,-1.1048
1.696630,1.7773,4.5561,1.8760,-2.0251,0.4327,-1.1048
1.696858,1.7773,4.5561,1.8760,-2.0080,0.4742,-1.1366
1.697254,1.6165,3.8518,2.2871,-2.0080,0.4742,-1.1366
1.699280,1.6165,3.8518,2.2871,-2.0080,0.4742,-1.1366
1.699955,1.6165,3.8518,2.2871,-1.9848,0.4412,-1.1610
1.700810,0.9693,3.2545,2.4025,-1.9848,0.4412,-1.1610
1.701578,0.9693,3.2545,2.4025,-1.9848,0.4412,-1.1610
1.701973,0.9693,3.2545,2.4025,-1.9554,0.3667,-1.1696
1.702604,0.6109,2.9052,2.5396,-1.9554,0.3667,-1.1696
1.707183,0.6109,2.9052,2.5396,-1.9554,0.3667,-1.1696
1.707446,0.6109,2.9052,2.5396,-1.9188,0.2837,-1.1708
1.707968,0.4800,2.5518,2.5690,-1.9188,0.2837,-1.1708
1.708394,0.4800,2.5518,2.5690,-1.9188,0.2837,-1.1708
1.708628,0.4800,2.5518,2.5690,-1.8821,0.1994,-1.1733
1.708994,0.4171,2.0085,2.6592,-1.8821,0.1994,-1.1733
1.709364,0.4171,2.0085,2.6592,-1.8821,0.1994,-1.1733
1.709609,0.4171,2.0085,2.6592,-1.8503,0.1163,-1.1758
1.709893,0.3373,1.5382,2.2330,-1.8503,0.1163,-1.1758
1.710285,0.3373,1.5382,2.2330,-1.8503,0.1163,-1.1758
1.710505,0.3373,1.5382,2.2330,-1.8345,0.0393,-1.1793
1.710918,-0.0220,1.3084,2.0521,-1.8345,0.0393,-1.1793
1.716214,-0.0220,1.3084,2.0521,-1.8345,0.0393,-1.1793
1.716732,-0.0220,1.3084,2.0521,-1.8296,-0.0230,-1.1818
1.717271,-0.0647,1.0592,1.9193,-1.8296,-0.0230,-1.1818
1.717838,-0.0647,1.0592,1.9193,-1.8296,-0.0230,-1.1818
1.718148,-0.0647,1.0592,1.9193,-1.8345,-0.0705,-1.1916
1.718523,0.1312,0.9434,1.6342,-1.8345,-0.0705,-1.1916
1.719003,0.1312,0.9434,1.6342,-1.8345,-0.0705,-1.1916
1.719309,0.1312,0.9434,1.6342,-1.8480,-0.1035,-1.2111
1.719761,-0.2920,1.0038,1.2518,-1.8480,-0.1035,-1.2111
1.720318,-0.2920,1.0038,1.2518,-1.8480,-0.1035,-1.2111
1.720662,-0.2920,1.0038,1.2518,-1.8760,-0.1243,-1.2185
1.721097,-1.0864,0.9143,0.6055,-1.8760,-0.1243,-1.2185
1.723076,-1.0864,0.9143,0.6055,-1.8760,-0.1243,-1.2185
1.723412,-1.0864,0.9143,0.6055,-1.9201,-0.1378,-1.2111
1.723885,-1.6835,0.7639,0.2315,-1.9201,-0.1378,-1.2111
1.724462,-1.6835,0.7639,0.2315,-1.9201,-0.1378,-1.2111
1.724771,-1.6835,0.7639,0.2315,-1.9726,-0.1635,-1.1928
1.725199,-2.1260,0.7459,-0.0471,-1.9726,-0.1635,-1.1928
1.727484,-2.1260,0.7459,-0.0471,-1.9726,-0.1635,-1.1928
1.728027,-2.1260,0.7459,-0.0471,-2.0263,-0.2038,-1.1708
1.728584,-2.0856,0.7953,0.0334,-2.0263,-0.2038,-1.1708
1.730637,-2.0856,0.7953,0.0334,-2.0263,-0.2038,-1.1708
1.731009,-2.0856,0.7953,0.0334,-2.0764,-0.2490,-1.1476
1.731543,-2.1874,1.0049,0.1673,-2.0764,-0.2490,-1.1476
1.732116,-2.1874,1.0049,0.1673,-2.0764,-0.2490,-1.1476
1.732486,-2.1874,1.0049,0.1673,-2.1179,-0.3076,-1.1220
1.733025,-2.3080,1.1651,0.2299,-2.1179,-0.3076,-1.1220
1.734312,-2.3080,1.1651,0.2299,-2.1179,-0.3076,-1.1220
1.734628,-2.3080,1.1651,0.2299,-2.1546,-0.3699,-1.0975
1.735045,-2.0801,1.2730,0.1350,-2.1546,-0.3699,-1.0975
1.736538,-2.0801,1.2730,0.1350,-2.1546,-0.3699,-1.0975
1.736817,-2.0801,1.2730,0.1350,-2.1900,-0.4311,-1.0816
1.737199,-2.0728,1.2559,0.0562,-2.1900,-0.4311,-1.0816
1.738790,-2.0728,1.2559,0.0562,-2.1900,-0.4311,-1.0816
1.739045,-2.0728,1.2559,0.0562,-2.2206,-0.4921,-1.0620
1.739487,-2.0593,1.1750,-0.1103,-2.2206,-0.4921,-1.0620
1.745508,-2.0593,1.1750,-0.1103,-2.2206,-0.4921,-1.0620
1.745869,-2.0593,1.1750,-0.1103,-2.2474,-0.5533,-1.0487
1.746296,-1.8093,1.1011,-0.3221,-2.2474,-0.5533,-1.0487
1.746914,-1.8093,1.1011,-0.3221,-2.2474,-0.5533,-1.0487
1.747350,-1.8093,1.1011,-0.3221,-2.2682,-0.6094,-1.0402
1.748088,-1.6190,1.2900,-0.4176,-2.2682,-0.6094,-1.0402
1.748774,-1.6190,1.2900,-0.4176,-2.2682,-0.6094,-1.0402
1.749162,-1.6190,1.2900,-0.4176,-2.2914,-0.6534,-1.0328
1.749724,-1.5628,1.2030,-0.5636,-2.2914,-0.6534,-1.0328
1.750252,-1.5628,1.2030,-0.5636,-2.2914,-0.6534,-1.0328
1.750663,-1.5628,1.2030,-0.5636,-2.3122,-0.6852,-1.0280
1.751214,-1.8328,1.0545,-1.0516,-2.3122,-0.6852,-1.0280
1.751842,-1.8328,1.0545,-1.0516,-2.3122,-0.6852,-1.0280
1.752454,-1.8328,1.0545,-1.0516,-2.3379,-0.7072,-1.0145
1.753110,-1.8170,1.0175,-1.4922,-2.3379,-0.7072,-1.0145
1.753726,-1.8170,1.0175,-1.4922,-2.3379,-0.7072,-1.0145
1.754163,-1.8170,1.0175,-1.4922,-2.3720,-0.7267,-0.9949
1.754693,-1.7706,0.9873,-1.6336,-2.3720,-0.7267,-0.9949
1.759140,-1.7706,0.9873,-1.6336,-2.3720,-0.7267,-0.9949
1.759566,-1.7706,0.9873,-1.6336,-2.4075,-0.7402,-0.9717
1.760285,-1.7861,0.7518,-2.0005,-2.4075,-0.7402,-0.9717
1.760988,-1.7861,0.7518,-2.0005,-2.4075,-0.7402,-0.9717
1.761374,-1.7861,0.7518,-2.0005,-2.4552,-0.7462,-0.9485
